File: Data/processed_data/Cycle 970_discharge.csv
Current(A),Test_Time(s),Voltage(V),Discharge_Capacity(Ah),dV/dQ(V/Ah),dQ/dV(Ah/V),Discharge_Energy(Wh),Power(W),Downsampled Voltage (V),Downsampled Capacity (Ah),dQ/dV from downsampled Voltage (Ah/V),dV/dQ from downsampled Cpacity (V/Ah),Downsampled Energy (Wh),Downsampled Power (W),dP/dE from downsampled Energy (W/Wh),dQ/dV from LEAN (Ah/V),Delta_V (V) in LEAN
-0.15001,11311.219,4.0701,0.26495,,,1.0846,-0.61056,,,,,1.0846,-0.61056,0.00432043,4.72727,0.0056
-0.15001,11491.219,4.0693,0.27245,0.0,0.0,1.1151,-0.61044,,,,,1.1151,-0.610435,0.00378286,4.72727,0.0056
-0.15,11671.219,4.0687,0.27995,,,1.1456,-0.61031,,,,,1.1456,-0.610326,0.00290816,4.72727,0.0056
-0.15001,11851.219,4.0677,0.28744,0.0,11.105,1.1761,-0.6102,,,,,1.1761,-0.610234,0.00398556,5.55619,0.0056
-0.15001,12031.218,4.0669,0.29494,,,1.2066,-0.61008,,,,,1.2066,-0.610103,0.00370332,5.55619,0.0056
-0.15001,12211.218,4.0662,0.30244,0.0,0.0,1.2371,-0.60997,,,,,1.2371,-0.609947,0.00555953,5.55619,0.0056
-0.15,12391.219,4.065,0.30994,,,1.2676,-0.60975,,,,,1.2676,-0.609804,0.00575761,5.55619,0.0056
-0.15001,12571.22,4.0641,0.31744,0.0,0.0,1.298,-0.60966,,,,,1.298,-0.609633,0.00454374,5.55619,0.0056
-0.15002,12751.219,4.0628,0.32494,0.10665,7.6008,1.3285,-0.6095,,,,,1.3285,-0.609463,0.00673916,5.55619,0.0056
-0.15001,12931.218,4.0614,0.33244,,,1.359,-0.60925,,,,,1.359,-0.60927,0.0064878,5.26425,0.0056
-0.15001,13111.218,4.0602,0.33994,0.0,0.0,1.3894,-0.60907,,,,,1.3894,-0.609059,0.00650111,5.26425,0.0056
-0.15001,13291.22,4.0585,0.34743,,,1.4199,-0.60882,,,,,1.4199,-0.608844,0.00743775,5.26425,0.0056
-0.15001,13471.218,4.0571,0.35493,0.0,,1.4503,-0.60861,,,,,1.4503,-0.608601,0.00866856,5.26425,0.0056
-0.15001,13651.218,4.0552,0.36243,,0.0,1.4807,-0.60832,,,,,1.4807,-0.608336,0.00919361,4.45024,0.0056
-0.15001,13831.218,4.0536,0.36993,0.0,,1.5111,-0.60808,,,,,1.5111,-0.608058,0.00909552,4.45024,0.0056
-0.15001,14011.217,4.0517,0.37743,0.0,0.0,1.5415,-0.6078,,,,,1.5415,-0.607784,0.00959519,4.45024,0.0056
-0.15001,14191.218,4.0496,0.38493,,,1.5719,-0.60748,4.0496,0.38493,-3.79299,-0.263647,1.5719,-0.607502,0.0093067,3.85302,0.0056
-0.15,14371.219,4.0479,0.39243,0.0,3.9102,1.6022,-0.60719,,,,,1.6022,-0.607211,0.00950847,3.85302,0.0056
-0.15001,14551.219,4.0457,0.39992,,,1.6326,-0.6069,,,,,1.6326,-0.606899,0.0113908,3.85302,0.0056
-0.15,14731.218,4.0437,0.40742,0.0,0.0,1.6629,-0.60656,,,,,1.6629,-0.606565,0.0100187,3.55453,0.0056
-0.15001,14911.218,4.0415,0.41492,0.0,,1.6932,-0.60627,,,,,1.6932,-0.60626,0.00964481,3.55453,0.0056
-0.15001,15091.22,4.0392,0.42242,,0.0,1.7235,-0.60592,,,,,1.7235,-0.605954,0.0115038,3.35527,0.0056
-0.15,15271.219,4.0372,0.42992,0.0,,1.7538,-0.60558,,,,,1.7538,-0.605587,0.0113884,3.35527,0.0056
-0.15001,15451.219,4.0347,0.43741,,0.0,1.7841,-0.60525,,,,,1.7841,-0.605256,0.0116698,3.35527,0.0056
-0.15001,15631.218,4.0326,0.44491,0.29723,3.2964,1.8143,-0.60493,,,,,1.8143,-0.604913,0.0112015,3.22171,0.0056
-0.15001,15811.218,4.0302,0.45241,,,1.8445,-0.60457,4.0302,0.45241,-3.16557,-0.316,1.8445,-0.604559,0.0124432,3.22171,0.0056
-0.15,15991.218,4.0277,0.45991,0.0,3.1957,1.8747,-0.60416,,,,,1.8747,-0.604204,0.0118444,3.09108,0.0056
-0.15001,16171.218,4.0255,0.46741,,,1.9049,-0.60387,,,,,1.9049,-0.603836,0.0115906,3.09108,0.0056
-0.15001,16351.219,4.0228,0.4749,0.3188,0.0,1.9351,-0.60346,,,,,1.9351,-0.603492,0.0127155,2.98355,0.0056
-0.15001,16531.219,4.0203,0.4824,,0.0,1.9653,-0.60309,,,,,1.9653,-0.603099,0.0125318,2.98355,0.0056
-0.15001,16711.219,4.0179,0.4899,0.0,2.9567,1.9954,-0.60273,4.0179,0.4899,-2.83665,-0.352889,1.9954,-0.602714,0.0126758,2.98355,0.0056
-0.15001,16891.218,4.0152,0.4974,,,2.0255,-0.60232,,,,,2.0255,-0.602346,0.0121457,2.89178,0.0056
-0.15001,17071.218,4.0128,0.5049,0.34215,2.8991,2.0556,-0.60196,,,,,2.0556,-0.601949,0.0138205,2.89178,0.0056
-0.15,17251.22,4.0099,0.51239,,,2.0857,-0.60149,4.0099,0.51239,-2.89648,-0.345461,2.0857,-0.601535,0.013704,2.8223,0.0056
-0.15001,17431.218,4.0074,0.51989,0.0,2.7417,2.1157,-0.60115,,,,,2.1157,-0.60113,0.0126292,2.8223,0.0056
-0.15001,17611.218,4.0046,0.52739,,,2.1458,-0.60073,,,,,2.1458,-0.60075,0.0137751,2.77313,0.0056
-0.15001,17791.219,4.0019,0.53489,,,2.1758,-0.60033,4.0019,0.53489,-2.75127,-0.363556,2.1758,-0.60033,0.0139814,2.77313,0.0056
-0.15001,17971.218,3.9992,0.54239,0.0,0.0,2.2058,-0.59992,,,,,2.2058,-0.59988,0.015134,2.7268,0.0056
-0.15,18151.218,3.9963,0.54988,,,2.2358,-0.59945,,,,,2.2358,-0.599468,0.0135245,2.7268,0.0056
-0.15001,18331.218,3.9937,0.55738,0.0,0.0,2.2657,-0.59909,3.9937,0.55738,-2.63344,-0.380349,2.2657,-0.599048,0.0135058,2.68051,0.0056
-0.15,18511.219,3.9907,0.56488,0.0,0.0,2.2957,-0.59861,,,,,2.2957,-0.59863,0.0144036,2.68051,0.0056
-0.15,18691.219,3.988,0.57238,,,2.3256,-0.5982,,,,,2.3256,-0.598201,0.0135454,2.67303,0.0056
-0.15,18871.218,3.9851,0.57988,0.0,0.0,2.3555,-0.59777,,,,,2.3555,-0.597798,0.0135424,2.67303,0.0056
-0.15001,19051.219,3.9824,0.58738,0.37144,2.6886,2.3853,-0.5974,3.9824,0.58738,-2.70337,-0.370667,2.3853,-0.597403,0.013628,2.67308,0.0056
-0.15001,19231.218,3.9796,0.59488,,,2.4152,-0.59698,,,,,2.4152,-0.596967,0.0154579,2.67308,0.0056
-0.15001,19411.218,3.9767,0.60237,0.0,,2.445,-0.59654,,,,,2.445,-0.596544,0.0139636,2.69991,0.0056
-0.15001,19591.218,3.9741,0.60987,,0.0,2.4748,-0.59615,3.9741,0.60987,-2.7806,-0.36017,2.4748,-0.596131,0.0131455,2.69991,0.0056
-0.15001,19771.219,3.9711,0.61737,,,2.5046,-0.5957,,,,,2.5046,-0.595717,0.0145099,2.73053,0.0056
-0.14999,19951.219,3.9684,0.62487,0.0,0.0,2.5344,-0.59522,,,,,2.5344,-0.595303,0.013169,2.73053,0.0056
-0.15001,20131.218,3.9659,0.63237,,0.0,2.5641,-0.59492,3.9659,0.63237,-2.69851,-0.371111,2.5641,-0.5949,0.0136222,2.79542,0.0056
-0.15001,20311.219,3.963,0.63987,0.0,,2.5939,-0.59449,,,,,2.5939,-0.594503,0.0139861,2.79542,0.0056
-0.15001,20491.218,3.9605,0.64736,0.0,0.0,2.6236,-0.59411,,,,,2.6236,-0.594082,0.0137812,2.87692,0.0056
-0.15,20671.218,3.9577,0.65486,,2.7886,2.6532,-0.59366,3.9577,0.65486,-2.89648,-0.345461,2.6532,-0.593686,0.0133401,2.87692,0.0056
-0.15001,20851.219,3.9552,0.66236,0.0,,2.6829,-0.59332,,,,,2.6829,-0.593312,0.0121754,2.94181,0.0056
-0.15001,21031.218,3.9526,0.66986,0.34985,2.9237,2.7126,-0.59293,,,,,2.7126,-0.592934,0.0134539,2.94181,0.0056
-0.15002,21211.219,3.95,0.67736,,,2.7422,-0.59258,3.95,0.67736,-3.01993,-0.332,2.7422,-0.592532,0.0127004,2.99472,0.0056
-0.15001,21391.218,3.9475,0.68486,0.0,2.9919,2.7718,-0.59216,,,,,2.7718,-0.592161,0.0124544,2.99472,0.0056
-0.15,21571.219,3.945,0.69236,,,2.8014,-0.59175,,,,,2.8014,-0.591808,0.0115137,2.99472,0.0056
-0.15001,21751.219,3.9427,0.69985,0.33462,3.034,2.831,-0.59144,,,,,2.831,-0.591429,0.0128254,3.09478,0.0056
-0.15001,21931.22,3.9402,0.70735,,,2.8605,-0.59107,,,,,2.8605,-0.591062,0.0129426,3.09478,0.0056
-0.15,22111.219,3.938,0.71485,0.0,0.0,2.8901,-0.5907,3.938,0.71485,-3.20513,-0.312,2.8901,-0.590695,0.0109342,3.22545,0.0056
-0.15001,22291.219,3.9355,0.72235,,0.0,2.9196,-0.59036,,,,,2.9196,-0.590367,0.0114978,3.22545,0.0056
-0.15001,22471.218,3.9332,0.72985,0.0,,2.9491,-0.59002,,,,,2.9491,-0.590023,0.0115622,3.37099,0.0056
-0.15,22651.219,3.9311,0.73735,0.0,0.0,2.9786,-0.58967,,,,,2.9786,-0.589661,0.0115192,3.37099,0.0056
-0.15,22831.22,3.9287,0.74485,,,3.008,-0.58931,,,,,3.008,-0.58935,0.0107945,3.37099,0.0056
-0.15001,23011.219,3.9267,0.75235,0.0,,3.0375,-0.58904,,,,,3.0375,-0.589016,0.0105228,3.53224,0.0056
-0.15001,23191.219,3.9244,0.75985,,0.0,3.0669,-0.5887,,,,,3.0669,-0.5887,0.0110996,3.53224,0.0056
-0.15001,23371.218,3.9223,0.76734,0.29105,3.5299,3.0964,-0.58838,3.9223,0.76734,-3.65324,-0.274064,3.0964,-0.58841,0.00953689,3.68979,0.0056
-0.15001,23551.219,3.9204,0.77484,,,3.1258,-0.5881,,,,,3.1258,-0.588085,0.0110925,3.68979,0.0056
-0.15,23731.219,3.9183,0.78234,0.0,0.0,3.1552,-0.58775,3.9183,0.78234,-3.81536,-0.262271,3.1552,-0.587777,0.0110556,3.68979,0.0056
-0.15,23911.217,3.9164,0.78984,,0.0,3.1845,-0.58746,,,,,3.1845,-0.587466,0.00942034,3.81673,0.0056
-0.15001,24091.218,3.9143,0.79734,0.0,,3.2139,-0.58718,,,,,3.2139,-0.587178,0.0104895,3.81673,0.0056
-0.15001,24271.218,3.9122,0.80484,0.26908,3.8254,3.2432,-0.58687,,,,,3.2432,-0.586897,0.00974042,3.81673,0.0056
-0.15001,24451.218,3.9105,0.81234,,,3.2726,-0.58661,,,,,3.2726,-0.586587,0.0101541,3.8705,0.0056
-0.15001,24631.219,3.9084,0.81984,0.0,0.0,3.3019,-0.5863,,,,,3.3019,-0.586305,0.00969863,3.8705,0.0056
-0.15001,24811.218,3.9067,0.82734,,,3.3312,-0.58604,,,,,3.3312,-0.586023,0.00904334,3.8705,0.0056
-0.15,24991.218,3.9048,0.83484,0.0,0.0,3.3605,-0.58572,,,,,3.3605,-0.585734,0.0110569,3.83619,0.0056
-0.15,25171.218,3.9027,0.84234,0.25579,,3.3898,-0.58541,,,,,3.3898,-0.585431,0.00967363,3.83619,0.0056
-0.15002,25351.218,3.9009,0.84984,,0.0,3.419,-0.58521,,,,,3.419,-0.585151,0.00910468,3.83619,0.0056
-0.15002,25531.218,3.8988,0.85733,0.0,,3.4483,-0.5849,,,,,3.4483,-0.584885,0.0104196,3.70551,0.0056
-0.15,25711.219,3.897,0.86483,,,3.4775,-0.58455,,,,,3.4775,-0.584564,0.00994302,3.70551,0.0056
-0.15001,25891.218,3.8949,0.87233,0.0,0.0,3.5067,-0.58427,,,,,3.5067,-0.58426,0.0107971,3.70551,0.0056
-0.15,26071.219,3.8927,0.87983,0.26471,,3.5359,-0.58391,,,,,3.5359,-0.583959,0.0107959,3.50166,0.0056
-0.15002,26251.218,3.8907,0.88733,,0.0,3.5651,-0.58368,,,,,3.5651,-0.583628,0.0112225,3.50166,0.0056
-0.15001,26431.219,3.8884,0.89483,0.0,,3.5943,-0.5833,,,,,3.5943,-0.583301,0.0124022,3.28291,0.0056
-0.15,26611.219,3.8863,0.90233,,0.0,3.6234,-0.58295,3.8863,0.90233,-3.29403,-0.304,3.6234,-0.582957,0.0111191,3.28291,0.0056
-0.15001,26791.219,3.8839,0.90983,0.0,,3.6525,-0.58262,,,,,3.6525,-0.582605,0.0125082,3.28291,0.0056
-0.15,26971.218,3.8814,0.91733,,,3.6817,-0.58221,,,,,3.6817,-0.582256,0.0115985,3.07163,0.0056
-0.15001,27151.218,3.8792,0.92483,0.0,0.0,3.7108,-0.58192,,,,,3.7108,-0.581898,0.0123771,3.07163,0.0056
-0.15001,27331.218,3.8764,0.93233,,,3.7398,-0.5815,,,,,3.7398,-0.581532,0.0133898,2.90664,0.0056
-0.15002,27511.219,3.874,0.93983,0.0,0.0,3.7689,-0.58118,3.874,0.93983,-2.87315,-0.348136,3.7689,-0.581133,0.0132158,2.90664,0.0056
-0.15001,27691.219,3.8713,0.94732,,,3.798,-0.58073,,,,,3.798,-0.580747,0.014512,2.79542,0.0056
-0.15001,27871.22,3.8688,0.95482,0.0,0.0,3.827,-0.58036,,,,,3.827,-0.580339,0.0133223,2.79542,0.0056
-0.15002,28051.218,3.8659,0.96232,,,3.856,-0.57996,3.8659,0.96232,-2.66761,-0.375,3.856,-0.579938,0.0143393,2.73796,0.0056
-0.15001,28231.219,3.8631,0.96982,0.0,0.0,3.885,-0.5795,,,,,3.885,-0.579522,0.0145181,2.73796,0.0056
-0.15,28411.218,3.8605,0.97732,0.0,0.0,3.9139,-0.57908,,,,,3.9139,-0.57909,0.0143028,2.71937,0.0056
-0.15001,28591.219,3.8575,0.98482,,2.6854,3.9429,-0.57866,,,,,3.9429,-0.578667,0.0147729,2.71937,0.0056
-0.15,28771.218,3.8548,0.99232,0.0,,3.9718,-0.57822,,,,,3.9718,-0.578235,0.0142725,2.71108,0.0056
-0.15,28951.219,3.8521,0.99982,0.37247,2.6927,4.0007,-0.57782,,,,,4.0007,-0.57782,0.0146734,2.71108,0.0056
-0.15,29131.219,3.8491,1.0073,,,4.0296,-0.57737,,,,,4.0296,-0.577413,0.0141292,2.73796,0.0056
-0.15001,29311.219,3.8465,1.0148,0.0,,4.0584,-0.57701,3.8465,1.0148,-2.82242,-0.354444,4.0584,-0.577011,0.0138063,2.73796,0.0056
-0.15002,29491.218,3.8437,1.0223,,0.0,4.0872,-0.57663,,,,,4.0872,-0.576609,0.0152304,2.79628,0.0056
-0.15001,29671.218,3.841,1.0298,0.0,,4.1161,-0.57619,,,,,4.1161,-0.576184,0.0140491,2.79628,0.0056
-0.15001,29851.219,3.8384,1.0373,,0.0,4.1449,-0.5758,3.8384,1.0373,-2.80619,-0.356444,4.1449,-0.575778,0.013783,2.79628,0.0056
-0.15001,30031.218,3.8356,1.0448,,0.0,4.1736,-0.57538,,,,,4.1736,-0.575398,0.0134227,2.83433,0.0056
-0.15002,30211.219,3.8331,1.0523,0.0,,4.2024,-0.57504,,,,,4.2024,-0.574989,0.0136339,2.83433,0.0056
-0.15001,30391.218,3.8305,1.0598,0.0,0.0,4.2311,-0.57461,,,,,4.2311,-0.574598,0.0141511,2.8649,0.0056
-0.15,30571.218,3.8277,1.0673,,,4.2598,-0.57416,,,,,4.2598,-0.574193,0.0134806,2.8649,0.0056
-0.15001,30751.219,3.8251,1.0748,0.0,0.0,4.2885,-0.5738,,,,,4.2885,-0.573797,0.0141333,2.89178,0.0056
-0.15,30931.219,3.8226,1.0823,0.34671,,4.3172,-0.57339,,,,,4.3172,-0.573418,0.0126299,2.89178,0.0056
-0.15002,31111.219,3.82,1.0898,,0.0,4.3459,-0.57308,,,,,4.3459,-0.57305,0.0132921,2.91867,0.0056
-0.15001,31291.218,3.8175,1.0973,0.0,2.9474,4.3745,-0.57266,,,,,4.3745,-0.572671,0.013391,2.91867,0.0056
-0.15001,31471.219,3.815,1.1048,,,4.4031,-0.57229,,,,,4.4031,-0.572278,0.01312,2.94181,0.0056
-0.15,31651.218,3.8124,1.1123,0.3406,2.9278,4.4317,-0.57186,,,,,4.4317,-0.571894,0.0140326,2.94181,0.0056
-0.15,31831.219,3.8098,1.1198,,,4.4603,-0.57147,3.8098,1.1198,-2.94851,-0.34,4.4603,-0.571509,0.012807,2.96041,0.0056
-0.15001,32011.218,3.8074,1.1273,0.0,2.9745,4.4889,-0.57115,,,,,4.4889,-0.57113,0.0132022,2.96041,0.0056
-0.15001,32191.219,3.8047,1.1348,,,4.5174,-0.57074,,,,,4.5174,-0.570756,0.0139198,2.99558,0.0056
-0.15,32371.219,3.8024,1.1423,0.33665,2.9805,4.5459,-0.57036,3.8024,1.1423,-3.00649,-0.332667,4.5459,-0.570365,0.0126537,2.99558,0.0056
-0.15001,32551.218,3.7997,1.1498,,,4.5744,-0.56999,,,,,4.5744,-0.570006,0.0128401,2.99558,0.0056
-0.15001,32731.22,3.7974,1.1573,0.0,2.996,4.6029,-0.56965,,,,,4.6029,-0.569638,0.0132867,3.01129,0.0056
-0.15001,32911.219,3.7948,1.1648,,,4.6314,-0.56926,,,,,4.6314,-0.569241,0.0141112,3.01129,0.0056
-0.15,33091.219,3.7922,1.1723,0.33671,2.989,4.6598,-0.56883,,,,,4.6598,-0.568874,0.0132923,2.99472,0.0056
-0.15002,33271.218,3.7899,1.1798,,,4.6883,-0.56856,3.7899,1.1798,-3.01292,-0.332,4.6883,-0.5685,0.0129106,2.99472,0.0056
-0.15001,33451.218,3.7872,1.1873,0.0,3.0167,4.7167,-0.56812,,,,,4.7167,-0.568125,0.0137808,3.01044,0.0056
-0.15,33631.219,3.7849,1.1948,,,4.7451,-0.56774,,,,,4.7451,-0.567748,0.0123103,3.01044,0.0056
-0.15001,33811.218,3.7823,1.2023,0.33059,3.0325,4.7734,-0.56738,3.7823,1.2023,-3.02564,-0.331111,4.7734,-0.567385,0.0128922,3.03818,0.0056
-0.15001,33991.217,3.7798,1.2098,,,4.8018,-0.56701,,,,,4.8018,-0.567025,0.0127869,3.03818,0.0056
-0.15001,34171.218,3.7775,1.2173,0.0,3.0253,4.8301,-0.56666,,,,,4.8301,-0.566635,0.0137467,3.03818,0.0056
-0.15,34351.219,3.7749,1.2248,,,4.8585,-0.56624,,,,,4.8585,-0.566262,0.0137173,3.03732,0.0056
-0.15001,34531.219,3.7724,1.2323,0.32929,3.0231,4.8868,-0.5659,,,,,4.8868,-0.565884,0.011852,3.03732,0.0056
-0.15001,34711.219,3.77,1.2398,,,4.915,-0.56554,3.77,1.2398,-3.01292,-0.332,4.915,-0.56555,0.0131268,3.02989,0.0056
-0.15001,34891.218,3.7674,1.2473,0.0,0.0,4.9433,-0.56515,,,,,4.9433,-0.565177,0.0136984,3.02989,0.0056
-0.15001,35071.219,3.7651,1.2548,,0.0,4.9715,-0.5648,,,,,4.9715,-0.564766,0.0138881,3.01872,0.0056
-0.15001,35251.22,3.7625,1.2623,0.33038,,4.9998,-0.56441,,,,,4.9998,-0.564415,0.0126531,3.01872,0.0056
-0.15001,35431.219,3.7601,1.2698,,0.0,5.028,-0.56405,,,,,5.028,-0.564041,0.0127523,3.01872,0.0056
-0.15,35611.217,3.7574,1.2773,0.0,,5.0562,-0.56361,,,,,5.0562,-0.563657,0.0143654,2.97986,0.0056
-0.15,35791.219,3.755,1.2848,,0.0,5.0843,-0.56325,,,,,5.0843,-0.563267,0.0130598,2.97986,0.0056
-0.15,35971.218,3.7525,1.2923,0.33506,2.9319,5.1125,-0.56288,,,,,5.1125,-0.562878,0.0141497,2.95667,0.0056
-0.15,36151.218,3.7498,1.2998,,,5.1406,-0.56247,3.7498,1.2998,-2.94199,-0.34,5.1406,-0.5625,0.0137232,2.95667,0.0056
-0.15,36331.218,3.7474,1.3073,0.0,2.9877,5.1687,-0.56211,,,,,5.1687,-0.562116,0.0134997,2.93812,0.0056
-0.15,36511.218,3.7448,1.3148,,,5.1968,-0.56172,,,,,5.1968,-0.56174,0.0136985,2.93812,0.0056
-0.15001,36691.218,3.7423,1.3223,0.34161,2.9456,5.2249,-0.56138,3.7423,1.3223,-3.00649,-0.332667,5.2249,-0.561354,0.0138679,2.91493,0.0056
-0.15,36871.219,3.7396,1.3298,,,5.2529,-0.56094,,,,,5.2529,-0.560973,0.0141831,2.91493,0.0056
-0.15,37051.217,3.7372,1.3373,0.0,2.9157,5.281,-0.56058,,,,,5.281,-0.560585,0.0130481,2.8835,0.0056
-0.15001,37231.218,3.7346,1.3448,,,5.309,-0.56023,,,,,5.309,-0.560212,0.0138582,2.8835,0.0056
-0.15001,37411.219,3.7319,1.3523,0.34096,2.9008,5.337,-0.55982,,,,,5.337,-0.559834,0.0145387,2.89921,0.0056
-0.15,37591.218,3.7295,1.3598,,,5.365,-0.55943,,,,,5.365,-0.559422,0.0139875,2.89921,0.0056
-0.15001,37771.219,3.7267,1.3673,0.0,2.8969,5.3929,-0.55904,,,,,5.3929,-0.559045,0.0136401,2.89921,0.0056
-0.15001,37951.218,3.7242,1.3748,,,5.4209,-0.55867,,,,,5.4209,-0.558677,0.0134708,2.93438,0.0056
-0.15001,38131.219,3.7217,1.3823,,2.9071,5.4488,-0.55829,3.7217,1.3823,-2.80619,-0.356444,5.4488,-0.558275,0.0144647,2.93438,0.0056
-0.15001,38311.218,3.719,1.3898,0.0,,5.4767,-0.55789,,,,,5.4767,-0.557902,0.0133607,2.95298,0.0056
-0.15001,38491.218,3.7166,1.3973,,,5.5046,-0.55753,,,,,5.5046,-0.557518,0.0134019,2.95298,0.0056
-0.15001,38671.219,3.7139,1.4048,0.0,0.0,5.5324,-0.55712,3.7139,1.4048,-2.97619,-0.336,5.5324,-0.557134,0.0147104,2.97612,0.0056
-0.15001,38851.219,3.7114,1.4123,,,5.5603,-0.55675,,,,,5.5603,-0.556755,0.0129826,2.97612,0.0056
-0.15001,39031.218,3.709,1.4198,0.0,0.0,5.5881,-0.55639,,,,,5.5881,-0.556374,0.0140274,3.01044,0.0056
-0.15001,39211.219,3.7063,1.4273,,,5.6159,-0.55598,3.7063,1.4273,-2.98996,-0.334667,5.6159,-0.555995,0.0145988,3.01044,0.0056
-0.15,39391.218,3.704,1.4348,0.0,0.0,5.6437,-0.5556,,,,,5.6437,-0.5556,0.0132504,3.01044,0.0056
-0.15001,39571.22,3.7014,1.4423,,,5.6714,-0.55525,,,,,5.6714,-0.555231,0.0133522,3.0642,0.0056
-0.15,39751.218,3.699,1.4498,0.0,0.0,5.6992,-0.55485,,,,,5.6992,-0.55489,0.0127348,3.0642,0.0056
-0.15,39931.218,3.6967,1.4573,,,5.7269,-0.55451,,,,,5.7269,-0.554534,0.0130759,3.12994,0.0056
-0.15001,40111.219,3.6941,1.4648,0.0,0.0,5.7546,-0.55415,3.6941,1.4648,-3.16557,-0.316,5.7546,-0.554165,0.0133046,3.12994,0.0056
-0.15,40291.219,3.6919,1.4723,,3.1359,5.7823,-0.55379,,,,,5.7823,-0.553811,0.0133593,3.19028,0.0056
-0.15,40471.218,3.6894,1.4798,0.0,,5.81,-0.55341,,,,,5.81,-0.553442,0.0133336,3.19028,0.0056
-0.15,40651.219,3.6872,1.4873,,3.2026,5.8377,-0.55308,,,,,5.8377,-0.553073,0.0123581,3.19028,0.0056
-0.15,40831.218,3.6848,1.4948,0.0,,5.8653,-0.55272,,,,,5.8653,-0.552755,0.0121263,3.29408,0.0056
-0.15001,41011.218,3.6826,1.5023,0.30854,0.0,5.8929,-0.55243,,,,,5.8929,-0.552424,0.011707,3.29408,0.0056
-0.15001,41191.218,3.6804,1.5098,,0.0,5.9205,-0.5521,,,,,5.9205,-0.552083,0.0125823,3.4293,0.0056
-0.15,41371.218,3.6781,1.5173,0.0,,5.9481,-0.55172,3.6781,1.5173,-3.47958,-0.287394,5.9481,-0.551757,0.0118134,3.4293,0.0056
-0.15001,41551.218,3.6761,1.5248,,,5.9757,-0.55145,,,,,5.9757,-0.551419,0.0117526,3.4293,0.0056
-0.15001,41731.219,3.6738,1.5323,0.0,0.0,6.0033,-0.55111,3.6738,1.5323,-3.47958,-0.287394,6.0033,-0.551099,0.0117994,3.53597,0.0056
-0.15001,41911.219,3.6718,1.5398,,,6.0308,-0.55081,,,,,6.0308,-0.550778,0.0113066,3.53597,0.0056
-0.15001,42091.22,3.6695,1.5473,0.0,0.0,6.0583,-0.55046,,,,,6.0583,-0.550461,0.0116879,3.64346,0.0056
-0.15001,42271.218,3.6674,1.5548,,,6.0858,-0.55015,,,,,6.0858,-0.550157,0.0104724,3.64346,0.0056
-0.15001,42451.218,3.6655,1.5623,0.0,0.0,6.1133,-0.54986,,,,,6.1133,-0.549847,0.0119406,3.64346,0.0056
-0.15,42631.218,3.6633,1.5698,,,6.1408,-0.5495,,,,,6.1408,-0.54954,0.0112084,3.74725,0.0056
-0.15001,42811.218,3.6615,1.5773,,,6.1683,-0.54926,,,,,6.1683,-0.549239,0.0101902,3.74725,0.0056
-0.15001,42991.218,3.6594,1.5848,0.0,0.0,6.1957,-0.54895,,,,,6.1957,-0.548948,0.0118384,3.74725,0.0056
-0.15001,43171.218,3.6574,1.5923,,,6.2232,-0.54865,,,,,6.2232,-0.548648,0.0105864,3.85019,0.0056
-0.15001,43351.218,3.6556,1.5998,0.0,0.0,6.2506,-0.54838,,,,,6.2506,-0.548361,0.00973001,3.85019,0.0056
-0.15002,43531.22,3.6535,1.6073,,,6.278,-0.5481,,,,,6.278,-0.548096,0.0106035,3.9697,0.0056
-0.15001,43711.218,3.6517,1.6148,,,6.3054,-0.54779,,,,,6.3054,-0.547792,0.0107047,3.9697,0.0056
-0.15,43891.219,3.6499,1.6223,0.0,0.0,6.3328,-0.54749,3.6499,1.6223,-4.06132,-0.246227,6.3328,-0.547486,0.0109994,3.9697,0.0056
-0.15,44071.218,3.6479,1.6298,,,6.3601,-0.54719,,,,,6.3601,-0.547212,0.00923881,4.07349,0.0056
-0.15001,44251.218,3.6462,1.6373,0.0,0.0,6.3875,-0.54697,3.6462,1.6373,-4.01898,-0.248864,6.3875,-0.546932,0.0101066,4.07349,0.0056
-0.14999,44431.219,3.6442,1.6448,,0.0,6.4148,-0.54659,,,,,6.4148,-0.546666,0.0104408,4.07349,0.0056
-0.15001,44611.219,3.6425,1.6523,0.24711,,6.4421,-0.54641,,,,,6.4421,-0.546388,0.00986962,4.07349,0.0056
-0.15,44791.218,3.6406,1.6598,,0.0,6.4695,-0.54609,,,,,6.4695,-0.546127,0.00992725,4.14211,0.0056
-0.15001,44971.219,3.639,1.6673,0.0,,6.4967,-0.54589,,,,,6.4967,-0.545861,0.0100619,4.14211,0.0056
-0.15,45151.219,3.637,1.6748,,4.1486,6.524,-0.54555,,,,,6.524,-0.545569,0.011021,4.14211,0.0056
-0.15,45331.218,3.6352,1.6822,0.0,,6.5513,-0.54528,,,,,6.5513,-0.545309,0.00827634,4.19214,0.0056
-0.15001,45511.218,3.6336,1.6897,,0.0,6.5786,-0.54508,,,,,6.5786,-0.545056,0.0100237,4.19214,0.0056
-0.15,45691.218,3.6317,1.6972,,,6.6058,-0.54476,,,,,6.6058,-0.544786,0.0099708,4.19214,0.0056
-0.15,45871.219,3.6301,1.7047,0.0,,6.633,-0.54452,3.6301,1.7047,-4.2279,-0.237143,6.633,-0.544515,0.00935987,4.21159,0.0056
-0.15,46051.218,3.6281,1.7122,,0.0,6.6602,-0.54422,,,,,6.6602,-0.544253,0.010135,4.21159,0.0056
-0.15,46231.219,3.6265,1.7197,0.0,,6.6874,-0.54398,,,,,6.6874,-0.543997,0.00851366,4.21159,0.0056
-0.15002,46411.218,3.6248,1.7272,,0.0,6.7146,-0.54379,,,,,6.7146,-0.543757,0.0096934,4.18471,0.0056
-0.15001,46591.218,3.6228,1.7347,0.0,,6.7418,-0.54346,,,,,6.7418,-0.543474,0.0110659,4.18471,0.0056
-0.15,46771.22,3.6213,1.7422,0.0,0.0,6.769,-0.5432,,,,,6.769,-0.543181,0.0101309,4.18471,0.0056
-0.15,46951.218,3.6193,1.7497,,,6.7961,-0.5429,,,,,6.7961,-0.542909,0.0100338,4.11523,0.0056
-0.15,47131.219,3.6176,1.7572,0.0,0.0,6.8232,-0.54264,,,,,6.8232,-0.542655,0.00899805,4.11523,0.0056
-0.15002,47311.218,3.6157,1.7647,,0.0,6.8504,-0.54243,,,,,6.8504,-0.542381,0.0112142,4.11523,0.0056
-0.15,47491.218,3.6136,1.7722,0.0,,6.8775,-0.54204,,,,,6.8775,-0.542089,0.0111775,4.03832,0.0056
-0.15001,47671.218,3.6119,1.7797,,3.9833,6.9046,-0.54182,,,,,6.9046,-0.541797,0.00883555,4.03832,0.0056
-0.15002,47851.218,3.6099,1.7872,0.0,,6.9316,-0.54156,3.6099,1.7872,-4.04321,-0.247912,6.9316,-0.541549,0.0106553,4.03832,0.0056
-0.15001,48031.218,3.608,1.7947,,0.0,6.9587,-0.54124,,,,,6.9587,-0.541267,0.0105646,3.97713,0.0056
-0.15001,48211.218,3.6063,1.8022,0.0,,6.9858,-0.54098,3.6063,1.8022,-4.04321,-0.247912,6.9858,-0.540956,0.0110601,3.97713,0.0056
-0.15001,48391.219,3.6043,1.8097,,0.0,7.0128,-0.54068,,,,,7.0128,-0.540673,0.010395,3.97713,0.0056
-0.15001,48571.218,3.6026,1.8172,0.25041,,7.0398,-0.54043,,,,,7.0398,-0.540396,0.00996503,3.9271,0.0056
-0.15001,48751.221,3.6005,1.8247,,0.0,7.0668,-0.54011,,,,,7.0668,-0.540112,0.0111008,3.9271,0.0056
-0.15,48931.218,3.5986,1.8322,0.0,,7.0938,-0.53979,,,,,7.0938,-0.539814,0.0104416,3.9271,0.0056
-0.15,49111.218,3.5968,1.8397,,3.9324,7.1208,-0.53952,,,,,7.1208,-0.539524,0.0112872,3.87793,0.0056
-0.15,49291.219,3.5947,1.8472,0.0,,7.1478,-0.53921,,,,,7.1478,-0.539247,0.0104027,3.87793,0.0056
-0.15001,49471.218,3.593,1.8547,,0.0,7.1747,-0.53899,,,,,7.1747,-0.538951,0.0105284,3.87793,0.0056
-0.15,49651.218,3.5909,1.8622,0.0,,7.2017,-0.53864,,,,,7.2017,-0.538671,0.0117409,3.79728,0.0056
-0.15,49831.219,3.5888,1.8697,,0.0,7.2286,-0.53832,,,,,7.2286,-0.53837,0.0101399,3.79728,0.0056
-0.15001,50011.218,3.587,1.8772,0.0,3.7913,7.2555,-0.53809,,,,,7.2555,-0.538061,0.0119345,3.79728,0.0056
-0.15,50191.218,3.5848,1.8847,,,7.2824,-0.53772,,,,,7.2824,-0.537757,0.0120022,3.69637,0.0056
-0.15001,50371.218,3.5829,1.8922,0.0,0.0,7.3093,-0.53747,,,,,7.3093,-0.537445,0.0105151,3.69637,0.0056
-0.15001,50551.218,3.5809,1.8997,0.0,,7.3361,-0.53717,,,,,7.3361,-0.537149,0.0111106,3.69637,0.0056
-0.15001,50731.218,3.5788,1.9072,,0.0,7.363,-0.53686,,,,,7.363,-0.536854,0.0110896,3.64346,0.0056
-0.15,50911.219,3.5769,1.9147,0.0,3.7166,7.3898,-0.53654,,,,,7.3898,-0.536544,0.0106482,3.64346,0.0056
-0.15,51091.218,3.5748,1.9222,,,7.4166,-0.53622,,,,,7.4166,-0.536251,0.0111626,3.59429,0.0056
-0.15001,51271.218,3.5727,1.9297,0.0,0.0,7.4434,-0.53594,,,,,7.4434,-0.535946,0.011346,3.59429,0.0056
-0.15001,51451.218,3.5707,1.9372,0.0,0.0,7.4702,-0.53564,,,,,7.4702,-0.535611,0.0129567,3.59429,0.0056
-0.15,51631.221,3.5684,1.9447,,,7.497,-0.53526,,,,,7.497,-0.535288,0.010925,3.50166,0.0056
-0.15001,51811.218,3.5665,1.9522,0.0,,7.5237,-0.53501,,,,,7.5237,-0.534983,0.011342,3.50166,0.0056
-0.15,51991.218,3.5641,1.9597,,0.0,7.5504,-0.53462,,,,,7.5504,-0.534668,0.0131147,3.50166,0.0056
-0.15,52171.218,3.562,1.9672,0.28594,3.4805,7.5772,-0.5343,3.562,1.9672,-3.37838,-0.296,7.5772,-0.534319,0.0118213,3.40156,0.0056
-0.15001,52351.218,3.5598,1.9747,,,7.6039,-0.53401,,,,,7.6039,-0.534001,0.013343,3.40156,0.0056
-0.15,52531.218,3.5575,1.9822,0.0,0.0,7.6306,-0.53363,,,,,7.6306,-0.533658,0.0131013,3.31353,0.0056
-0.15001,52711.218,3.5554,1.9897,,0.0,7.6572,-0.53335,,,,,7.6572,-0.533313,0.0123674,3.31353,0.0056
-0.15001,52891.218,3.5529,1.9972,0.0,,7.6839,-0.53297,,,,,7.6839,-0.532974,0.0136953,3.31353,0.0056
-0.15,53071.218,3.5507,2.0047,0.0,,7.7105,-0.53261,,,,,7.7105,-0.532624,0.0124224,3.25603,0.0056
-0.15001,53251.219,3.5484,2.0122,,0.0,7.7371,-0.5323,,,,,7.7371,-0.532275,0.0135077,3.25603,0.0056
-0.15,53431.218,3.546,2.0197,0.0,,7.7637,-0.5319,3.546,2.0197,-3.24785,-0.308,7.7637,-0.531928,0.0133508,3.20231,0.0056
-0.15001,53611.219,3.5438,2.0272,,0.0,7.7903,-0.53161,,,,,7.7903,-0.531575,0.0122343,3.20231,0.0056
-0.15001,53791.219,3.5413,2.0347,,3.2221,7.8169,-0.53123,,,,,7.8169,-0.531249,0.0134251,3.16426,0.0056
-0.15,53971.218,3.5391,2.0422,0.0,,7.8434,-0.53087,,,,,7.8434,-0.530883,0.0131582,3.16426,0.0056
-0.15001,54151.218,3.5367,2.0497,,3.1687,7.87,-0.53054,,,,,7.87,-0.530514,0.0138328,3.16426,0.0056
-0.15,54331.218,3.5342,2.0572,0.0,,7.8965,-0.53013,3.5342,2.0572,-3.125,-0.32,7.8965,-0.530173,0.0125046,3.11423,0.0056
-0.15002,54511.218,3.532,2.0647,0.31656,3.1447,7.923,-0.52987,,,,,7.923,-0.529824,0.013021,3.11423,0.0056
-0.15001,54691.218,3.5293,2.0722,,,7.9494,-0.52943,,,,,7.9494,-0.529444,0.0156282,3.0642,0.0056
-0.15,54871.218,3.5269,2.0797,0.0,3.0815,7.9759,-0.52904,,,,,7.9759,-0.529073,0.0131159,3.0642,0.0056
-0.15002,55051.218,3.5247,2.0872,,,8.0023,-0.52878,,,,,8.0023,-0.528715,0.0130779,3.01872,0.0056
-0.15002,55231.218,3.522,2.0947,0.32586,3.0572,8.0288,-0.52837,3.522,2.0947,-3.01292,-0.332,8.0288,-0.528362,0.0145065,3.01872,0.0056
-0.15001,55411.218,3.5197,2.1022,,0.0,8.0552,-0.52799,,,,,8.0552,-0.527959,0.014676,3.01872,0.0056
-0.15,55591.218,3.5171,2.1097,0.0,2.9762,8.0816,-0.52757,,,,,8.0816,-0.527577,0.0143156,2.94555,0.0056
-0.15001,55771.218,3.5144,2.1172,,,8.1079,-0.5272,3.5144,2.1172,-2.95684,-0.338222,8.1079,-0.527209,0.0132112,2.94555,0.0056
-0.15001,55951.218,3.5121,2.1247,0.33621,2.9373,8.1343,-0.52685,,,,,8.1343,-0.526823,0.0158191,2.87233,0.0056
-0.15,56131.218,3.5093,2.1322,,,8.1606,-0.5264,,,,,8.1606,-0.526428,0.0147608,2.87233,0.0056
-0.15001,56311.22,3.5068,2.1397,0.0,2.8833,8.1869,-0.52606,,,,,8.1869,-0.526039,0.0143198,2.81487,0.0056
-0.15001,56491.218,3.504,2.1472,,,8.2132,-0.52564,,,,,8.2132,-0.525642,0.0159144,2.81487,0.0056
-0.15,56671.219,3.5015,2.1547,,2.8082,8.2395,-0.52523,,,,,8.2395,-0.525225,0.0161456,2.77313,0.0056
-0.15001,56851.219,3.4986,2.1622,0.0,,8.2657,-0.52482,,,,,8.2657,-0.52481,0.0148783,2.77313,0.0056
-0.15001,57031.221,3.496,2.1697,,,8.2919,-0.52443,,,,,8.2919,-0.524417,0.0155592,2.71937,0.0056
-0.15,57211.218,3.4931,2.1772,0.0,0.0,8.3181,-0.52397,,,,,8.3181,-0.524004,0.0161742,2.71937,0.0056
-0.15001,57391.219,3.4904,2.1847,0.0,,8.3443,-0.52359,3.4904,2.1847,-2.70337,-0.370667,8.3443,-0.52357,0.0162782,2.66105,0.0056
-0.15,57571.218,3.4876,2.1922,,0.0,8.3705,-0.52314,,,,,8.3705,-0.523149,0.0169654,2.66105,0.0056
-0.15001,57751.219,3.4846,2.1997,0.0,0.0,8.3966,-0.52272,,,,,8.3966,-0.522727,0.015962,2.6276,0.0056
-0.15001,57931.218,3.4819,2.2072,0.37686,2.626,8.4228,-0.52232,3.4819,2.2072,-2.66761,-0.375,8.4228,-0.5223,0.0163237,2.6276,0.0056
-0.15001,58111.219,3.4789,2.2147,,,8.4489,-0.52187,,,,,8.4489,-0.521872,0.0176808,2.57383,0.0056
-0.15,58291.218,3.476,2.2222,0.0,,8.4749,-0.5214,,,,,8.4749,-0.521419,0.0167069,2.57383,0.0056
-0.15001,58471.218,3.4732,2.2297,,0.0,8.501,-0.52101,,,,,8.501,-0.52097,0.0173579,2.50723,0.0056
-0.15,58651.219,3.47,2.2372,0.0,,8.527,-0.5205,3.47,2.2372,-2.5,-0.4,8.527,-0.520529,0.017654,2.50723,0.0056
-0.15,58831.219,3.4672,2.2447,,0.0,8.553,-0.52008,,,,,8.553,-0.520061,0.0175298,2.50435,0.0056
-0.15001,59011.218,3.464,2.2522,0.0,0.0,8.579,-0.51963,,,,,8.579,-0.519621,0.0170874,2.50435,0.0056
-0.15001,59191.219,3.4611,2.2597,,,8.605,-0.5192,,,,,8.605,-0.519188,0.0173802,2.51637,0.0056
-0.15001,59371.218,3.4581,2.2672,0.0,,8.6309,-0.51875,3.4581,2.2672,-2.43902,-0.41,8.6309,-0.51873,0.0178337,2.51637,0.0056
-0.15002,59551.219,3.4549,2.2747,,0.0,8.6569,-0.5183,,,,,8.6569,-0.518288,0.0164434,2.52295,0.0056
-0.15001,59731.219,3.4521,2.2822,0.40453,2.4904,8.6828,-0.51785,,,,,8.6828,-0.517845,0.0175289,2.52295,0.0056
-0.15001,59911.218,3.4489,2.2897,,,8.7086,-0.51737,,,,,8.7086,-0.517384,0.017862,2.58041,0.0056
-0.15001,60091.218,3.4462,2.2972,0.0,2.5561,8.7345,-0.51696,3.4462,2.2972,-2.7027,-0.37,8.7345,-0.516935,0.0162493,2.70365,0.0056
-0.15001,60271.22,3.4433,2.3047,,,8.7603,-0.51653,,,,,8.7603,-0.516517,0.0160026,2.70365,0.0056
-0.15001,60451.218,3.4405,2.3122,0.0,,8.7861,-0.51611,,,,,8.7861,-0.516115,0.0154497,2.85747,0.0056
-0.15,60631.217,3.438,2.3197,,0.0,8.8119,-0.5157,3.438,2.3197,-2.84385,-0.352,8.8119,-0.515715,0.0154497,2.85747,0.0056
-0.15001,60811.219,3.4353,2.3272,0.0,0.0,8.8377,-0.51533,,,,,8.8377,-0.515322,0.0151285,2.85747,0.0056
-0.15001,60991.22,3.4328,2.3347,,,8.8634,-0.51495,,,,,8.8634,-0.514934,0.0145888,3.00301,0.0056
-0.15,61171.218,3.4304,2.3422,0.0,0.0,8.8892,-0.51456,3.4304,2.3422,-3.09679,-0.323333,8.8892,-0.514578,0.0145019,3.00301,0.0056
-0.15001,61351.218,3.4279,2.3497,,,8.9149,-0.51422,,,,,8.9149,-0.514211,0.0135076,3.13368,0.0056
-0.15001,61531.219,3.4257,2.3572,0.0,,8.9406,-0.51389,3.4257,2.3572,-3.19894,-0.312606,8.9406,-0.513857,0.0141155,3.13368,0.0056
-0.15,61711.218,3.4231,2.3647,,0.0,8.9663,-0.51347,,,,,8.9663,-0.513511,0.013677,3.22631,0.0056
-0.15001,61891.219,3.4209,2.3722,0.0,,8.9919,-0.51317,,,,,8.9919,-0.513159,0.0129285,3.22631,0.0056
-0.15,62071.219,3.4188,2.3797,,0.0,9.0176,-0.51282,,,,,9.0176,-0.512819,0.0136772,3.22631,0.0056
-0.15001,62251.218,3.4163,2.3872,0.0,3.2823,9.0432,-0.51248,,,,,9.0432,-0.512475,0.0135541,3.23005,0.0056
-0.14999,62431.22,3.4142,2.3947,,,9.0688,-0.5121,3.4142,2.3947,-3.24785,-0.308,9.0688,-0.512123,0.0130084,3.23005,0.0056
-0.15001,62611.219,3.4117,2.4022,,3.278,9.0944,-0.51179,,,,,9.0944,-0.511804,0.0130385,3.15683,0.0056
-0.15002,62791.218,3.4095,2.4097,,,9.12,-0.51149,,,,,9.12,-0.51146,0.0136844,3.15683,0.0056
-0.15001,62971.218,3.4071,2.4172,0.0,0.0,9.1455,-0.5111,,,,,9.1455,-0.511094,0.0150514,3.01503,0.0056
-0.15001,63151.219,3.4045,2.4247,,0.0,9.1711,-0.51071,,,,,9.1711,-0.510723,0.0144344,3.01503,0.0056
-0.15001,63331.218,3.4022,2.4322,0.31925,,9.1966,-0.51036,3.4022,2.4322,-2.97957,-0.336,9.1966,-0.510337,0.0150309,3.01503,0.0056
-0.15,63511.22,3.3996,2.4397,,0.0,9.2221,-0.50994,,,,,9.2221,-0.509965,0.0150651,2.83802,0.0056
-0.15001,63691.218,3.397,2.4472,0.0,2.9034,9.2476,-0.50958,,,,,9.2476,-0.509572,0.0152585,2.83802,0.0056
-0.15,63871.218,3.3943,2.4547,,,9.273,-0.50915,3.3943,2.4547,-2.6462,-0.38,9.273,-0.50916,0.0170983,2.64619,0.0056
-0.15,64051.218,3.3914,2.4622,,2.7059,9.2985,-0.50871,,,,,9.2985,-0.508738,0.0165707,2.64619,0.0056
-0.15001,64231.22,3.3885,2.4697,0.0,,9.3239,-0.50831,,,,,9.3239,-0.508287,0.0185232,2.45518,0.0056
-0.15,64411.218,3.3852,2.4772,,,9.3493,-0.50778,,,,,9.3493,-0.507822,0.0194502,2.45518,0.0056
-0.15002,64591.218,3.382,2.4847,0.41346,2.2954,9.3747,-0.50737,3.382,2.4847,-2.25874,-0.443333,9.3747,-0.507327,0.0194306,2.21702,0.0056
-0.15001,64771.218,3.3786,2.4922,,,9.4,-0.50682,3.3786,2.4922,-2.04237,-0.49723,9.4,-0.506803,0.0223393,1.97427,0.0056
-0.15001,64951.22,3.3746,2.4996,0.0,,9.4254,-0.50622,3.3746,2.4996,-1.91343,-0.523717,9.4254,-0.506236,0.0232128,1.97427,0.0056
-0.15001,65131.219,3.3708,2.5071,,1.9246,9.4506,-0.50565,3.3708,2.5071,-1.84896,-0.546667,9.4506,-0.505617,0.0245609,1.79442,0.0056
-0.15,65311.218,3.3664,2.5146,0.0,1.751,9.4759,-0.50496,3.3664,2.5146,-1.65194,-0.606667,9.4759,-0.504972,0.0272047,1.66091,0.0056
-0.15001,65491.219,3.3617,2.5221,0.59232,1.6051,9.5011,-0.50429,3.3617,2.5221,-1.49993,-0.670667,9.5011,-0.504263,0.0289183,1.5228,0.0056
-0.15001,65671.219,3.3565,2.5296,,1.4811,9.5263,-0.50351,,,,,9.5263,-0.503506,0.0309787,1.36898,0.0056
-0.15002,65851.218,3.3509,2.5371,0.69366,1.374,9.5515,-0.5027,3.3509,2.5371,-1.27773,-0.782667,9.5515,-0.50269,0.0346695,1.23831,0.0056
-0.15,66031.218,3.345,2.5446,,1.2801,9.5766,-0.50175,3.345,2.5446,-1.17298,-0.856667,9.5766,-0.501778,0.0377891,1.14654,0.0056
-0.15001,66211.22,3.3384,2.5521,,,9.6016,-0.50079,3.3384,2.5521,-1.11221,-0.9,9.6016,-0.500794,0.0411691,1.08534,0.0056
-0.15,66391.219,3.3313,2.5596,0.91712,1.042,9.6267,-0.4997,,,,,9.6267,-0.49972,0.0447583,1.02788,0.0056
-0.15001,66571.218,3.3237,2.5671,,,9.6516,-0.49859,,,,,9.6516,-0.498555,0.0486716,0.97412,0.0056
-0.15,66751.22,3.3151,2.5746,0.0,0.8931,9.6765,-0.49727,3.3151,2.5746,-0.857254,-1.16667,9.6765,-0.497299,0.0525711,0.862897,0.0056
-0.15001,66931.221,3.3061,2.5821,0.0,0.81113,9.7013,-0.49595,3.3061,2.5821,-0.794051,-1.26,9.7013,-0.49593,0.0569495,0.778557,0.0056
-0.15001,67111.218,3.2961,2.5896,,0.73708,9.7261,-0.49445,,,,,9.7261,-0.494464,0.0622495,0.744245,0.0056
-0.15001,67291.219,3.2855,2.5971,,0.70444,9.7508,-0.49286,3.2855,2.5971,-0.666904,-1.5,9.7508,-0.492866,0.066762,0.674764,0.0056
-0.15001,67471.218,3.274,2.6046,0.0,0.64815,9.7754,-0.49113,3.274,2.6046,-0.61898,-1.62,9.7754,-0.491123,0.0759933,0.633023,0.0056
-0.15001,67651.219,3.261,2.6121,1.7213,0.57369,9.7999,-0.48918,3.261,2.6121,-0.549583,-1.82,9.7999,-0.489189,0.0827328,0.556112,0.0056
-0.15001,67831.219,3.2471,2.6196,,0.53967,9.8243,-0.4871,3.2471,2.6196,-0.522645,-1.92,9.8243,-0.487073,0.0899776,0.5218,0.0056
-0.15001,68011.218,3.2317,2.6271,2.0426,0.49077,9.8485,-0.48479,3.2317,2.6271,-0.476277,-2.1,9.8485,-0.484804,0.0980576,0.487488,0.0056
-0.15,68191.218,3.2156,2.6346,,0.44824,9.8727,-0.48234,3.2156,2.6346,-0.446713,-2.24,9.8727,-0.482341,0.1045,0.418007,0.0056
-0.15,68371.218,3.1981,2.6421,2.3288,0.42464,9.8968,-0.47972,3.1981,2.6421,-0.416898,-2.4,9.8968,-0.479738,0.112115,0.43746,0.0056
-0.15001,68551.22,3.1795,2.6496,2.5055,0.39653,9.9207,-0.47696,3.1795,2.6496,-0.390816,-2.56,9.9207,-0.476949,0.121442,0.375409,0.0056
-0.15001,68731.219,3.1594,2.6571,2.68,0.3662,9.9445,-0.47394,3.1594,2.6571,-0.357289,-2.8,9.9445,-0.473942,0.131205,0.36798,0.0056
-0.15001,68911.218,3.138,2.6646,2.8717,0.34295,9.9681,-0.47073,3.138,2.6646,-0.335843,-2.98,9.9681,-0.470715,0.142141,0.333667,0.0056
-0.15,69091.218,3.1146,2.6721,3.0917,0.3196,9.9915,-0.46719,3.1146,2.6721,-0.3125,-3.2,9.9915,-0.467224,0.155322,0.299355,0.0056
-0.15,69271.22,3.0896,2.6796,3.3972,0.29026,10.015,-0.46344,3.0896,2.6796,-0.284385,-3.52,10.015,-0.463455,0.175469,0.299355,0.0056
-0.15002,69451.218,3.0622,2.6871,3.7394,0.26616,10.038,-0.45939,3.0622,2.6871,-0.264684,-3.78,10.038,-0.459369,0.192508,0.256757,0.0056
-0.15001,69631.219,3.0322,2.6946,4.0964,0.24218,10.061,-0.45486,3.0322,2.6946,-0.237063,-4.22,10.061,-0.454866,0.212406,0.222445,0.0056
-0.15001,69811.218,2.9991,2.7021,4.528,0.21602,10.083,-0.44989,2.9991,2.7021,-0.215806,-4.64,10.083,-0.449882,0.235259,0.222445,0.0056
-0.15,69991.219,2.9619,2.7096,5.1538,0.19326,10.106,-0.44429,2.9619,2.7096,-0.190252,-5.26,10.106,-0.444322,0.264818,0.188133,0.0056
-0.15001,70171.218,2.92,2.7171,5.8718,0.16927,10.128,-0.43803,2.92,2.7171,-0.167407,-5.98,10.128,-0.43805,0.30133,0.164987,0.0056
-0.15001,70351.219,2.871,2.7246,7.0234,0.1398,10.149,-0.43068,2.871,2.7246,-0.138347,-7.26,10.149,-0.430709,0.369322,0.153821,0.0056
-0.15001,70531.219,2.8072,2.7321,9.6216,0.10197,10.171,-0.42111,2.8072,2.7321,-0.0989633,-10.18,10.171,-0.420953,0.545306,0.111222,0.0056
-0.15001,70711.217,2.7182,2.7396,13.025,0.076449,10.191,-0.40776,2.7182,2.7396,-0.0765041,-13.08,10.191,-0.407808,0.754172,0.0769103,0.0056
-0.15001,70891.218,2.6155,2.7471,14.069,0.071388,10.211,-0.39235,2.6155,2.7471,-0.0706316,-14.16,10.211,-0.391885,0.830125,0.0574575,0.0056
-0.15001,71071.219,2.5089,2.7546,14.125,0.071293,10.231,-0.37636,2.5089,2.7546,-0.0681015,-14.6953,10.231,-0.377652,3.07134,0.08434,0.0056
-0.14998,71086.394,2.5,2.7552,13.949,0.071232,10.232,-0.37495,2.5,2.7552,-0.0674157,-14.9714,,,,0.103793,0.0056