File: Data/processed_data/cycle1_charge.csv
Charge_Capacity(Ah),Voltage_sm (V),Interpolated dV/dQ (V/Ah),Interpolated dQ/dV (Ah/V)
0.0500434,3.17487,3.45486,0.301115
0.0520225,3.18117,3.33527,0.308788
0.0540016,3.1875,3.25822,0.309724
0.0559807,3.1937,3.13782,0.319128
0.0579599,3.19977,3.06309,0.330443
0.059939,3.20569,3.03939,0.338548
0.0619181,3.21142,2.99967,0.342492
0.0638972,3.21694,2.91148,0.34615
0.0658763,3.22241,2.81722,0.358525
0.0678554,3.22785,2.76151,0.367954
0.0698346,3.23321,2.7313,0.371283
0.0718137,3.23844,2.679,0.374583
0.0737928,3.2435,2.59294,0.381679
0.0757719,3.24844,2.53686,0.390678
0.077751,3.25329,2.50886,0.399657
0.0797301,3.25809,2.48074,0.407021
0.0817093,3.26284,2.44045,0.412965
0.0836884,3.2675,2.3984,0.42017
0.0856675,3.27204,2.36384,0.430803
0.0876466,3.27646,2.328,0.442564
0.0896257,3.28078,2.27539,0.451469
0.0916048,3.28505,2.21144,0.457819
0.093584,3.28933,2.16569,0.466614
0.0955631,3.29356,2.13881,0.476204
0.0975422,3.29766,2.1241,0.483564
0.0995213,3.30163,2.10163,0.488679
0.1015,3.30554,2.03924,0.4943
0.10348,3.30944,1.93422,0.502449
0.105459,3.31332,1.89974,0.511901
0.107438,3.31715,2.06431,0.520716
0.109417,3.3209,2.23913,0.528634
0.111396,3.32455,1.90453,0.537151
0.113375,3.32807,0.799017,0.547098
0.115354,3.33153,-0.0954249,0.555894
0.117333,3.33501,0.498449,0.560262
0.119312,3.33847,1.98137,0.565611
0.121292,3.34181,2.41917,0.580852
0.123271,3.34505,1.97853,0.59861
0.12525,3.34825,1.14873,0.60969
0.127229,3.35142,0.266898,0.614023
0.129208,3.35453,-0.434781,0.617826
0.131187,3.35756,-0.726194,0.627445
0.133166,3.36046,-0.377229,0.649223
0.135145,3.36322,0.759846,0.687401
0.137125,3.36586,1.58819,0.71468
0.139104,3.36841,1.14155,0.719719
0.141083,3.37084,0.173075,0.754749
0.143062,3.37313,-0.501512,0.868901
0.145041,3.37528,-0.715341,1.04804
0.14702,3.37729,-0.588841,1.25003
0.148999,3.37917,-0.24372,1.43258
0.150978,3.38094,0.198313,1.55343
0.152957,3.3826,0.615549,1.57032
0.154937,3.38416,0.886279,1.44096
0.156916,3.38562,0.889352,1.12348
0.158895,3.387,0.591147,0.637688
0.160874,3.38832,0.140082,0.13169
0.162853,3.38957,-0.302684,-0.240776
0.164832,3.39077,-0.679242,-0.433349
0.166811,3.39193,-0.992783,-0.463221
0.16879,3.39303,-1.2473,-0.348411
0.17077,3.3941,-1.44677,-0.106939
0.172749,3.39511,-1.59521,0.243173
0.174728,3.39609,-1.69658,0.683907
0.176707,3.39703,-1.75489,1.19724
0.178686,3.39793,-1.77411,1.76516
0.180665,3.3988,-1.75826,2.36964
0.182644,3.39964,-1.7113,2.99266
0.184623,3.40044,-1.63724,3.6162
0.186602,3.40122,-1.54006,4.22224
0.188582,3.40197,-1.42375,4.79276
0.190561,3.4027,-1.2923,5.30974
0.19254,3.40341,-1.14971,5.75516
0.194519,3.4041,-0.999954,6.11101
0.196498,3.40477,-0.847033,6.35925
0.198477,3.40542,-0.694934,6.48187
0.200456,3.40607,-0.547645,6.46086
0.202435,3.4067,-0.409158,6.27818
0.204415,3.40732,-0.283463,5.91583
0.206394,3.40794,-0.174548,5.35578
0.208373,3.40855,-0.0864047,4.58
0.210352,3.40916,-0.0230219,3.57049
0.212331,3.40977,0.0117518,2.31579
0.21431,3.41039,0.0183497,1.00307
0.216289,3.41105,0.00214577,0.0487181
0.218268,3.41174,-0.0260866,-0.230982
0.220247,3.41242,-0.0293931,-0.0961029
0.222227,3.41303,0.0364222,0.0168488
0.224206,3.41355,0.170916,-0.038133
0.226185,3.41403,0.314476,-0.021935
0.228164,3.41454,0.411375,0.291306
0.230143,3.41507,0.453666,0.888653
0.232122,3.41563,0.451152,1.66845
0.234101,3.41621,0.413667,2.52891
0.23608,3.41681,0.351044,3.36822
0.23806,3.41742,0.273117,4.08458
0.240039,3.41804,0.189719,4.5762
0.242018,3.41868,0.110683,4.74128
0.243997,3.41931,0.0458427,4.47802
0.245976,3.41995,0.00503139,3.68462
0.247955,3.42058,-0.00464756,2.31761
0.249934,3.42119,0.00134104,0.815823
0.251913,3.42172,-0.00343185,-0.146855
0.253892,3.42219,-0.0226313,-0.277931
0.255872,3.42265,-0.014215,-0.0514621
0.257851,3.4232,0.0630284,0.0202588
0.25983,3.4238,0.188344,-0.0510495
0.261809,3.42441,0.305732,0.0445097
0.263788,3.42498,0.37649,0.502739
0.265767,3.42552,0.402962,1.24691
0.267746,3.42602,0.393296,2.16179
0.269725,3.42651,0.355638,3.13214
0.271704,3.42698,0.298134,4.04272
0.273684,3.42745,0.228931,4.77828
0.275663,3.42792,0.156176,5.2236
0.277642,3.42841,0.0880136,5.26342
0.279621,3.42891,0.0325918,4.78252
0.2816,3.42945,-0.00194537,3.66575
0.283579,3.43001,-0.0115815,1.99183
0.285558,3.43056,-0.00508233,0.4398
0.287537,3.43109,0.00632262,-0.242147
0.289517,3.43157,0.0114585,-0.12976
0.291496,3.43201,-0.000802398,-0.00405716
0.293475,3.43246,-0.0292973,-0.335426
0.295454,3.43293,-0.0283585,-0.386862
0.297433,3.4335,0.0540421,0.791109
0.299412,3.43412,0.187244,2.79407
0.301391,3.43469,0.259353,3.8875
0.30337,3.43513,0.191356,2.84637
0.305349,3.43554,0.05825,0.844458
0.307329,3.43606,-0.0269273,-0.35515
0.309308,3.43668,-0.0294158,-0.301203
0.311287,3.43727,-0.00155646,-0.00208945
0.313266,3.43769,0.00951061,-0.249453
0.315245,3.43805,0.00442554,-0.399569
0.317224,3.4385,-0.00178428,0.597795
0.319203,3.4391,-0.00218816,2.58699
0.321182,3.43973,-0.000204253,3.87162
0.323162,3.4403,0.000667167,3.05866
0.325141,3.44081,0.00033218,1.07737
0.32712,3.44125,-9.89725e-05,-0.333958
0.329099,3.44166,-9.88712e-05,-0.453859
0.331078,3.44211,1.73448e-06,-0.0557595
0.333057,3.44266,-0.000114039,0.0860789
0.335036,3.44327,-0.000204613,0.000793705
0.337015,3.44388,0.000200161,0.0489564
0.338994,3.44446,0.0013206,0.433035
0.340974,3.44501,0.00295319,1.08626
0.342953,3.44553,0.0048535,1.91587
0.344932,3.44604,0.00677709,2.82908
0.346911,3.44653,0.00847951,3.73312
0.34889,3.44702,0.00971633,4.53523
0.350869,3.44751,0.0102431,5.14263
0.352848,3.44802,0.00981539,5.46254
0.354827,3.44854,0.00818875,5.40221
0.356807,3.44909,0.00511875,4.86885
0.358786,3.44966,0.000360938,3.76969
0.360765,3.45027,-0.00522971,2.13267
0.362744,3.45087,-0.00548602,0.568975
0.364723,3.45141,0.00687637,-0.15482
0.366702,3.45191,0.0214304,-0.0210545
0.368681,3.45243,0.00538411,0.0421894
0.37066,3.45304,-0.0566534,-0.632413
0.372639,3.4537,-0.0732301,-0.889393
0.374619,3.45431,0.0799976,1.00661
0.376598,3.45485,0.287837,3.65161
0.378577,3.45534,0.241621,3.06683
0.380556,3.45585,0.0643356,0.81477
0.382535,3.45647,-0.0452566,-0.568002
0.384514,3.45716,-0.0401158,-0.49347
0.386493,3.45783,0.00159098,0.0183507
0.388472,3.45841,0.0167992,0.163071
0.390452,3.45894,0.00792229,0.0524959
0.392431,3.45949,-0.00880191,-0.0108158
0.39441,3.46007,-0.0251728,0.107269
0.396389,3.46068,-0.0406031,0.381335
0.398368,3.46133,-0.0548054,0.779684
0.400347,3.462,-0.067492,1.27062
0.402326,3.46269,-0.0783755,1.82245
0.404305,3.4634,-0.0871682,2.40347
0.406284,3.46412,-0.0935827,2.98199
0.408264,3.46484,-0.0973313,3.5263
0.410243,3.46557,-0.0981266,4.00473
0.412222,3.46629,-0.0956809,4.38556
0.414201,3.467,-0.0897068,4.6371
0.41618,3.4677,-0.0799167,4.72766
0.418159,3.46838,-0.0660231,4.62554
0.420138,3.46903,-0.0477383,4.29903
0.422117,3.46966,-0.0247749,3.71645
0.424097,3.47026,0.00314814,2.84615
0.426076,3.47083,0.0285587,1.71042
0.428055,3.47143,0.021238,0.489846
0.430034,3.4721,-0.0469467,-0.587056
0.432013,3.47285,-0.102159,-0.980155
0.433992,3.47364,0.012593,0.104737
0.435971,3.47444,0.307467,2.44539
0.43795,3.47518,0.352095,2.82978
0.439929,3.47588,0.152509,1.28361
0.441909,3.47659,-0.0335697,-0.326805
0.443888,3.47732,-0.0635511,-0.813154
0.445867,3.47809,-0.013798,-0.280094
0.447846,3.47889,0.0226235,0.978902
0.449825,3.4797,0.0207804,2.24904
0.451804,3.48046,-0.00770331,2.59315
0.453783,3.48115,-0.0388528,1.65487
0.455762,3.48186,-0.0229591,0.327484
0.457741,3.48266,0.0857306,-0.409124
0.459721,3.48354,0.254538,-0.381251
0.4617,3.48444,0.403053,0.0936464
0.463679,3.48531,0.475416,0.750664
0.465658,3.48615,0.478522,1.47299
0.467637,3.48696,0.428857,2.16646
0.469616,3.48775,0.342906,2.7369
0.471595,3.48851,0.237158,3.09012
0.473574,3.48926,0.128097,3.13197
0.475554,3.49,0.0322096,2.76828
0.477533,3.49072,-0.0338224,1.92394
0.479512,3.49146,-0.0501976,0.830347
0.481491,3.49225,0.00540045,-0.0340736
0.48347,3.4931,0.14159,-0.323418
0.485449,3.49399,0.320407,-0.163919
0.487428,3.49487,0.495263,0.223306
0.489407,3.49574,0.643442,0.712587
0.491386,3.49658,0.764035,1.26544
0.493366,3.49741,0.856933,1.84657
0.495345,3.49823,0.922027,2.4207
0.497324,3.49903,0.95921,2.95253
0.499303,3.49983,0.968373,3.40679
0.501282,3.50062,0.949406,3.74818
0.503261,3.5014,0.902203,3.94142
0.50524,3.50218,0.826653,3.95123
0.507219,3.50296,0.722649,3.74231
0.509199,3.50374,0.590082,3.27938
0.511178,3.50452,0.428844,2.52715
0.513157,3.50531,0.244815,1.49962
0.515136,3.50611,0.0759991,0.475097
0.517115,3.5069,-0.0295093,-0.184471
0.519094,3.50768,-0.0518236,-0.321664
0.521073,3.50848,-0.0100626,-0.0618987
0.523052,3.5093,0.0742824,0.45314
0.525031,3.51014,0.182729,1.10942
0.527011,3.51099,0.297948,1.8035
0.52899,3.51185,0.402613,2.43196
0.530969,3.51269,0.479398,2.8914
0.532948,3.51352,0.510976,3.0784
0.534927,3.51433,0.480021,2.88953
0.536906,3.51511,0.369547,2.22345
0.538885,3.51586,0.194962,1.17296
0.540864,3.51661,0.0302745,0.182233
0.542844,3.51738,-0.052027,-0.313629
0.544823,3.51817,-0.0464471,-0.280542
0.546802,3.51898,0.0179983,0.108987
0.548781,3.51979,0.115758,0.702262
0.55076,3.52061,0.229126,1.39161
0.552739,3.52143,0.341379,2.07501
0.554718,3.52225,0.435797,2.65044
0.556697,3.52307,0.495656,3.01588
0.558676,3.52389,0.504235,3.06931
0.560656,3.52471,0.444812,2.7087
0.562635,3.52553,0.305026,1.85856
0.564614,3.52633,0.126586,0.772161
0.566593,3.52709,-0.0122822,-0.075129
0.568572,3.52781,-0.0579899,-0.35643
0.570551,3.52851,-0.0273878,-0.16939
0.57253,3.52923,0.0509694,0.317475
0.574509,3.52997,0.155231,0.971084
0.576489,3.53073,0.268757,1.6859
0.578468,3.53151,0.375043,2.35712
0.580447,3.53231,0.457587,2.87991
0.582426,3.53313,0.499885,3.14949
0.584405,3.53397,0.485432,3.06102
0.586384,3.53481,0.397727,2.5097
0.588363,3.53567,0.236848,1.49548
0.590342,3.5365,0.0658654,0.416251
0.592321,3.53727,-0.0392977,-0.248825
0.594301,3.53798,-0.0532334,-0.33797
0.59628,3.53868,-0.00226781,-0.0144489
0.598259,3.53939,0.0867789,0.554888
0.600238,3.54013,0.195209,1.25212
0.602217,3.54088,0.306549,1.97272
0.604196,3.54165,0.404325,2.61218
0.606175,3.54243,0.472065,3.06596
0.608154,3.54322,0.493296,3.22956
0.610133,3.54402,0.451544,2.99845
0.612113,3.54481,0.331335,2.27345
0.614092,3.5456,0.15833,1.17514
0.616071,3.54639,0.0129931,0.116956
0.61805,3.54718,-0.0363822,-0.498646
0.620029,3.54793,-0.0180303,-0.458054
0.622008,3.54863,0.00434545,0.37451
0.623987,3.54928,0.00173165,1.71237
0.625966,3.54996,-0.0016336,2.62167
0.627946,3.55073,0.0159235,2.27605
0.629925,3.55155,0.0256414,1.00613
0.631904,3.55231,-0.0222316,-0.35583
0.633883,3.55299,-0.100874,-1.04399
0.635862,3.55364,-0.0499269,-0.411707
0.637841,3.55433,0.24301,1.80823
0.63982,3.55508,0.399233,2.95364
0.641799,3.55584,0.233347,1.79471
0.643778,3.55658,0.00429553,0.0372023
0.645758,3.55728,-0.0696578,-0.797648
0.647737,3.55794,-0.0299487,-0.539786
0.649716,3.55859,0.0139101,0.603222
0.651695,3.55924,0.01554,2.05357
0.653674,3.55994,0.00095498,2.80893
0.655653,3.5607,-0.00484685,2.12874
0.657632,3.56147,-0.00219464,0.718165
0.659611,3.56216,0.000693909,-0.277443
0.661591,3.56277,0.000414582,-0.391693
0.66357,3.56333,-9.42436e-05,-0.0525101
0.665549,3.56389,0.00213986,0.305312
0.667528,3.56447,0.00771439,0.56953
0.669507,3.56506,0.0163507,0.746883
0.671486,3.56566,0.027769,0.844298
0.673465,3.56628,0.0416892,0.8687
0.675444,3.56691,0.0578313,0.827017
0.677423,3.56754,0.0759154,0.726175
0.679403,3.56819,0.0956616,0.573099
0.681382,3.56885,0.11679,0.374718
0.683361,3.56951,0.13902,0.137956
0.68534,3.57018,0.162073,-0.130259
0.687319,3.57085,0.185667,-0.423001
0.689298,3.57153,0.209524,-0.733344
0.691277,3.57221,0.233364,-1.05436
0.693256,3.5729,0.256905,-1.37913
0.695236,3.57358,0.279869,-1.70071
0.697215,3.57427,0.301976,-2.01219
0.699194,3.57496,0.322944,-2.30664
0.701173,3.57564,0.342496,-2.57713
0.703152,3.57633,0.36035,-2.81674
0.705131,3.57701,0.376226,-3.01854
0.70711,3.57769,0.389845,-3.1756
0.709089,3.57836,0.400927,-3.28099
0.711068,3.57903,0.409191,-3.3278
0.713048,3.57969,0.414358,-3.30908
0.715027,3.58034,0.416148,-3.21793
0.717006,3.58098,0.41428,-3.0474
0.718985,3.58162,0.408476,-2.79058
0.720964,3.58224,0.398454,-2.44054
0.722943,3.58286,0.383935,-1.99035
0.724922,3.58346,0.36464,-1.43308
0.726901,3.58405,0.340287,-0.761814
0.728881,3.58462,0.310597,0.0303818
0.73086,3.58518,0.275666,0.936577
0.732839,3.58573,0.236937,1.90003
0.734818,3.58627,0.196157,2.85282
0.736797,3.58681,0.155073,3.72703
0.738776,3.58735,0.115431,4.45471
0.740755,3.58789,0.07898,4.96795
0.742734,3.58844,0.0474654,5.19882
0.744713,3.58899,0.0226343,5.0794
0.746693,3.58957,0.0062338,4.54176
0.748672,3.59016,1.06566e-05,3.51797
0.750651,3.59077,0.00349653,2.03548
0.75263,3.59137,0.00545425,0.585397
0.754609,3.59192,-0.00795545,-0.214034
0.756588,3.59242,-0.0259993,-0.243602
0.758567,3.59294,-0.00675171,-0.0176155
0.760546,3.5935,0.0823611,0.00797904
0.762526,3.5941,0.209042,-0.0562625
0.764505,3.59472,0.318489,0.0976957
0.766484,3.59533,0.380298,0.613662
0.768463,3.59593,0.399703,1.39548
0.770442,3.59652,0.384758,2.32799
0.772421,3.59709,0.343518,3.29606
0.7744,3.59763,0.284037,4.18454
0.776379,3.59815,0.214369,4.87827
0.778358,3.59864,0.142567,5.26211
0.780338,3.5991,0.0766867,5.22092
0.782317,3.59952,0.0247816,4.63954
0.784296,3.59989,-0.00514739,3.40536
0.786275,3.60025,-0.0112025,1.69613
0.788254,3.60067,-0.00315936,0.244949
0.790233,3.60121,0.00788932,-0.256163
0.792212,3.60183,0.0108482,-0.0834985
0.794191,3.60241,-0.00528695,-0.0385793
0.79617,3.60287,-0.0325818,-0.404289
0.79815,3.60327,-0.0211781,-0.303662
0.800129,3.60369,0.075622,1.14823
0.802108,3.60415,0.20596,3.18021
0.804087,3.60468,0.256162,3.98223
0.806066,3.60527,0.169386,2.63999
0.808045,3.60582,0.0373512,0.583166
0.810024,3.60626,-0.0318006,-0.498038
0.812003,3.60663,-0.0251864,-0.397071
0.813983,3.60705,0.00211126,0.0340223
0.815962,3.60758,0.00945353,0.161148
0.817941,3.60816,0.00315057,0.0607742
0.81992,3.6087,-0.00244493,-0.0652749
0.821899,3.60918,-0.00247279,-0.09888
0.823878,3.60962,0.000143812,0.00944093
0.825857,3.61006,0.0028617,0.293261
0.827836,3.61049,0.00524061,0.738282
0.829815,3.61091,0.00729328,1.31989
0.831795,3.61134,0.0090324,2.01348
0.833774,3.61176,0.0104707,2.79443
0.835753,3.61219,0.0116209,3.63813
0.837732,3.61261,0.0124957,4.51998
0.839711,3.61303,0.0131078,5.41535
0.84169,3.61346,0.0134699,6.29965
0.843669,3.61389,0.0135948,7.14825
0.845648,3.61432,0.0134951,7.93655
0.847628,3.61475,0.0131836,8.63994
0.849607,3.61519,0.012673,9.23379
0.851586,3.61564,0.0119759,9.69351
0.853565,3.61609,0.0111052,9.99448
0.855544,3.61654,0.0100735,10.1121
0.857523,3.617,0.00889349,10.0217
0.859502,3.61747,0.00757796,9.69876
0.861481,3.61795,0.00613959,9.11861
0.86346,3.61844,0.0045911,8.25665
0.86544,3.61894,0.00294519,7.08828
0.867419,3.61945,0.00121458,5.58887
0.869398,3.61997,-0.000578156,3.73741
0.871377,3.62049,-0.00176852,1.74691
0.873356,3.621,-0.000667181,0.203948
0.875335,3.62147,0.00362161,-0.373025
0.877314,3.62191,0.0053638,-0.226487
0.879293,3.6223,-0.00404352,0.0583821
0.881273,3.62268,-0.0194462,0.123938
0.883252,3.62309,-0.010334,0.0346087
0.885231,3.62356,0.0515297,-0.0969957
0.88721,3.62408,0.149837,-0.133566
0.889189,3.62462,0.244989,0.0747372
0.891168,3.62514,0.310239,0.608442
0.893147,3.62565,0.346261,1.40232
0.895126,3.62614,0.357185,2.37275
0.897105,3.62662,0.34714,3.43614
0.899085,3.62707,0.320256,4.50888
0.901064,3.62751,0.280663,5.50735
0.903043,3.62793,0.232492,6.34794
0.905022,3.62834,0.179871,6.94706
0.907001,3.62872,0.12693,7.22108
0.90898,3.62909,0.0778007,7.0864
0.910959,3.62944,0.0366114,6.45942
0.912938,3.62977,0.0074922,5.25652
0.914918,3.63008,-0.00582139,3.42458
0.916897,3.63042,-0.00573962,1.38537
0.918876,3.63083,0.000469513,-0.0640442
0.920855,3.63135,0.00578056,-0.417078
0.922834,3.63188,0.00439063,-0.14733
0.924813,3.63232,-0.0083208,0.0948479
0.926792,3.63266,-0.0192242,0.0888203
0.928771,3.63301,0.000708266,-0.00116245
0.93075,3.63344,0.0703308,-0.0350379
0.93273,3.63394,0.167547,-0.0169025
0.934709,3.63445,0.261149,0.0155395
0.936688,3.63494,0.335688,0.042953
0.938667,3.63542,0.39191,0.064885
0.940646,3.63589,0.431302,0.0817446
0.942625,3.63635,0.45535,0.0939409
0.944604,3.63679,0.465542,0.101883
0.946583,3.63723,0.463363,0.10598
0.948563,3.63765,0.450302,0.106641
0.950542,3.63807,0.427843,0.104275
0.952521,3.63848,0.397475,0.0992909
0.9545,3.63888,0.360683,0.0920983
0.956479,3.63928,0.318954,0.083106
0.958458,3.63968,0.273776,0.0727232
0.960437,3.64007,0.226634,0.0613589
0.962416,3.64046,0.179016,0.0494222
0.964395,3.64085,0.132407,0.0373223
0.966375,3.64124,0.0882957,0.0254682
0.968354,3.64163,0.0481675,0.0142691
0.970333,3.64202,0.0135094,0.00413392
0.972312,3.64242,-0.0137571,-0.00436795
0.974291,3.64281,-0.0235989,-0.00768053
0.97627,3.64321,0.00119774,0.000396284
0.978249,3.64361,0.0703466,0.0186813
0.980228,3.644,0.164835,0.0182885
0.982207,3.6444,0.259541,-0.035159
0.984187,3.6448,0.341937,-0.154592
0.986166,3.64519,0.412129,-0.331439
0.988145,3.64559,0.470774,-0.556185
0.990124,3.646,0.518531,-0.819318
0.992103,3.6464,0.556055,-1.11133
0.994082,3.64681,0.584004,-1.4227
0.996061,3.64722,0.603036,-1.74392
0.99804,3.64763,0.613808,-2.06547
1.00002,3.64804,0.616976,-2.37785
1.002,3.64846,0.613199,-2.67154
1.00398,3.64888,0.603133,-2.93703
1.00596,3.6493,0.587437,-3.1648
1.00794,3.64972,0.566766,-3.34535
1.00992,3.65015,0.541779,-3.46916
1.01189,3.65058,0.513132,-3.52671
1.01387,3.65102,0.481484,-3.5085
1.01585,3.65145,0.44749,-3.40501
1.01783,3.6519,0.411809,-3.20673
1.01981,3.65234,0.375098,-2.90415
1.02179,3.65279,0.338014,-2.48775
1.02377,3.65325,0.301214,-1.94802
1.02575,3.6537,0.265355,-1.27545
1.02773,3.65417,0.231096,-0.460526
1.02971,3.65464,0.199077,0.504788
1.03169,3.65511,0.169603,1.59508
1.03366,3.65558,0.142638,2.75181
1.03564,3.65605,0.118135,3.91498
1.03762,3.65652,0.0960458,5.02464
1.0396,3.65699,0.076322,6.0208
1.04158,3.65745,0.0589153,6.8435
1.04356,3.6579,0.0437775,7.43276
1.04554,3.65834,0.0308605,7.72861
1.04752,3.65877,0.0201161,7.67107
1.0495,3.65918,0.0114959,7.20017
1.05148,3.65958,0.00495188,6.25593
1.05346,3.65995,0.000435733,4.7784
1.05543,3.66032,-0.00201541,2.7972
1.05741,3.6607,-0.00186079,0.870994
1.05939,3.66117,0.00156255,-0.257704
1.06137,3.66171,0.00549938,-0.373735
1.06335,3.66222,0.00206,-0.05445
1.06533,3.6626,-0.0133326,0.12785
1.06731,3.66293,-0.0192497,0.0905795
1.06929,3.66333,0.0164958,-0.0405987
1.07127,3.66386,0.101559,-0.135573
1.07325,3.66446,0.201078,-0.0578607
1.07523,3.66505,0.279195,0.313468
1.07721,3.66561,0.326756,0.965703
1.07918,3.66614,0.347765,1.82029
1.08116,3.66664,0.346316,2.79822
1.08314,3.66712,0.326505,3.82047
1.08512,3.66757,0.292427,4.80803
1.0871,3.66801,0.248177,5.68188
1.08908,3.66843,0.19785,6.36302
1.09106,3.66884,0.145542,6.77242
1.09304,3.66923,0.0953474,6.83108
1.09502,3.66961,0.0513618,6.45997
1.097,3.66998,0.0176803,5.58008
1.09898,3.67035,-0.00160708,4.11274
1.10095,3.67072,-0.00555796,2.18174
1.10293,3.67112,-0.00169973,0.455736
1.10491,3.6716,0.00144165,-0.357549
1.10689,3.67212,0.0013167,-0.299985
1.10887,3.67264,-0.000116069,0.0211873
1.11085,3.67313,-0.00108387,0.138285
1.11283,3.6736,-0.000744429,0.0652685
1.11481,3.67405,0.00153934,-0.0926484
1.11679,3.67451,0.00598828,-0.284146
1.11877,3.67497,0.0124627,-0.504597
1.12075,3.67543,0.0208108,-0.750916
1.12272,3.67589,0.0308811,-1.02002
1.1247,3.67635,0.0425217,-1.30883
1.12668,3.67682,0.0555812,-1.61425
1.12866,3.67728,0.0699078,-1.9332
1.13064,3.67775,0.0853498,-2.26261
1.13262,3.67822,0.101756,-2.59938
1.1346,3.67869,0.118973,-2.94043
1.13658,3.67916,0.136852,-3.28268
1.13856,3.67964,0.155239,-3.62304
1.14054,3.68012,0.173983,-3.95843
1.14252,3.68059,0.192933,-4.28577
1.1445,3.68108,0.211936,-4.60197
1.14647,3.68156,0.230842,-4.90394
1.14845,3.68205,0.249498,-5.18862
1.15043,3.68254,0.267753,-5.4529
1.15241,3.68303,0.285455,-5.6937
1.15439,3.68353,0.302452,-5.90795
1.15637,3.68403,0.318593,-6.09256
1.15835,3.68453,0.333727,-6.24445
1.16033,3.68504,0.347701,-6.36052
1.16231,3.68555,0.360363,-6.4377
1.16429,3.68606,0.371563,-6.4729
1.16627,3.68658,0.381148,-6.46304
1.16824,3.6871,0.388967,-6.40504
1.17022,3.68762,0.394868,-6.29581
1.1722,3.68815,0.3987,-6.13226
1.17418,3.68869,0.40031,-5.91132
1.17616,3.68922,0.399548,-5.6299
1.17814,3.68977,0.396261,-5.28491
1.18012,3.69031,0.390298,-4.87328
1.1821,3.69086,0.381507,-4.39191
1.18408,3.69142,0.369736,-3.83773
1.18606,3.69198,0.354835,-3.20764
1.18804,3.69255,0.33665,-2.49857
1.19001,3.69312,0.315031,-1.70744
1.19199,3.6937,0.289826,-0.83115
1.19397,3.69428,0.260883,0.133347
1.19595,3.69486,0.228424,1.17277
1.19793,3.69545,0.193672,2.22969
1.19991,3.69605,0.158017,3.23932
1.20189,3.69663,0.122852,4.13686
1.20387,3.69722,0.0895675,4.85751
1.20585,3.6978,0.0595548,5.33647
1.20783,3.69837,0.0342052,5.50896
1.20981,3.69893,0.0149099,5.31017
1.21179,3.69948,0.00306017,4.6753
1.21376,3.70001,4.72986e-05,3.53957
1.21574,3.70053,0.00455414,1.96684
1.21772,3.70104,0.00528391,0.495057
1.2197,3.70156,-0.010156,-0.254052
1.22168,3.7021,-0.0266331,-0.240382
1.22366,3.70268,-0.00156156,-0.00393563
1.22564,3.70334,0.0934218,0.020883
1.22762,3.70403,0.220158,-0.036157
1.2296,3.70469,0.323517,0.101246
1.23158,3.7053,0.377321,0.541078
1.23356,3.70587,0.388534,1.19865
1.23553,3.70641,0.365935,1.97872
1.23751,3.70693,0.318306,2.78604
1.23949,3.70745,0.254426,3.52537
1.24147,3.70798,0.183076,4.10145
1.24345,3.70852,0.113036,4.41903
1.24543,3.70909,0.0530866,4.38289
1.24741,3.7097,0.0120075,3.89775
1.24939,3.71037,-0.00180841,2.87436
1.25137,3.71106,0.00434701,1.46531
1.25335,3.71172,0.00244144,0.142985
1.25533,3.71229,-0.0262961,-0.629956
1.2573,3.71282,-0.0366559,-0.580679
1.25928,3.71342,0.0389419,0.483261
1.26126,3.7141,0.191777,2.18138
1.26324,3.71478,0.297041,3.26213
1.26522,3.71538,0.244318,2.64819
1.2672,3.71591,0.0935941,1.00901
1.26918,3.71647,-0.0225289,-0.242007
1.27116,3.71708,-0.038599,-0.412217
1.27314,3.71774,-0.00732849,-0.0770692
1.27512,3.71841,0.0123463,0.123772
1.2771,3.71909,0.00943511,0.0868172
1.27908,3.71976,-0.00315354,-0.0242115
1.28105,3.72043,-0.0163369,-0.0950407
1.28303,3.72109,-0.0291337,-0.115483
1.28501,3.72175,-0.0415409,-0.0879216
1.28699,3.72241,-0.0535554,-0.0147381
1.28897,3.72306,-0.0651742,0.101685
1.29095,3.72371,-0.0763942,0.258965
1.29293,3.72435,-0.0872125,0.45472
1.29491,3.725,-0.097626,0.686567
1.29689,3.72564,-0.107632,0.952124
1.29887,3.72627,-0.117226,1.24901
1.30085,3.72691,-0.126407,1.57484
1.30282,3.72754,-0.135171,1.92723
1.3048,3.72817,-0.143515,2.3038
1.30678,3.7288,-0.151436,2.70217
1.30876,3.72943,-0.158931,3.11996
1.31074,3.73005,-0.165997,3.55478
1.31272,3.73068,-0.17263,4.00425
1.3147,3.7313,-0.178829,4.46599
1.31668,3.73192,-0.184589,4.93762
1.31866,3.73255,-0.189909,5.41675
1.32064,3.73317,-0.194784,5.901
1.32262,3.73379,-0.199211,6.38799
1.32459,3.73441,-0.203189,6.87533
1.32657,3.73504,-0.206713,7.36065
1.32855,3.73566,-0.20978,7.84157
1.33053,3.73628,-0.212388,8.31569
1.33251,3.73691,-0.214534,8.78064
1.33449,3.73753,-0.216214,9.23403
1.33647,3.73816,-0.217426,9.67349
1.33845,3.73879,-0.218166,10.0966
1.34043,3.73942,-0.218432,10.5011
1.34241,3.74005,-0.21822,10.8844
1.34439,3.74069,-0.217527,11.2443
1.34637,3.74132,-0.216351,11.5783
1.34834,3.74196,-0.214688,11.8841
1.35032,3.7426,-0.212535,12.1593
1.3523,3.74325,-0.20989,12.4015
1.35428,3.7439,-0.206748,12.6083
1.35626,3.74455,-0.203108,12.7774
1.35824,3.7452,-0.198966,12.9063
1.36022,3.74586,-0.194319,12.9926
1.3622,3.74653,-0.189164,13.0341
1.36418,3.74719,-0.183498,13.0283
1.36616,3.74787,-0.177318,12.9728
1.36814,3.74854,-0.170621,12.8652
1.37011,3.74922,-0.163404,12.7032
1.37209,3.74991,-0.155664,12.4844
1.37407,3.7506,-0.147397,12.2064
1.37605,3.7513,-0.138602,11.8668
1.37803,3.752,-0.129274,11.4633
1.38001,3.75271,-0.119411,10.9933
1.38199,3.75343,-0.10901,10.4547
1.38397,3.75415,-0.0980669,9.84494
1.38595,3.75488,-0.0865798,9.16168
1.38793,3.75561,-0.0745454,8.40254
1.38991,3.75635,-0.0619605,7.56514
1.39188,3.7571,-0.0488222,6.6471
1.39386,3.75786,-0.0351274,5.64602
1.39584,3.75862,-0.0208731,4.55954
1.39782,3.75939,-0.00605622,3.38527
1.3998,3.76017,0.0087782,2.1286
1.40178,3.76093,0.0149451,0.910431
1.40376,3.76165,-0.00246958,-0.0598637
1.40574,3.7623,-0.0400845,-0.565883
1.40772,3.76292,-0.0355886,-0.375972
1.4097,3.76354,0.0788034,0.706498
1.41168,3.7642,0.25529,2.17589
1.413655,3.76492,0.344396,2.90881
1.41563,3.76569,0.24776,2.16027
1.41761,3.76645,0.0709715,0.677976
1.41959,3.76711,-0.0374135,-0.464063
1.42157,3.76769,-0.0378612,-0.711508
1.42355,3.76828,-0.000899239,-0.0346772
1.42553,3.76896,0.0126167,1.40184
1.42751,3.7697,0.0054714,2.68466
1.42949,3.77041,-0.00251449,2.72943
1.43147,3.77109,-0.00285308,1.48257
1.43345,3.77175,-0.000187916,0.0848864
1.43543,3.77241,0.000964391,-0.469651
1.4374,3.77309,0.000506662,-0.283395
1.43938,3.77377,-0.000257522,0.195038
1.44136,3.77444,-0.000567572,0.70188
1.44334,3.77512,-0.00038632,1.21956
1.44532,3.7758,0.000273281,1.74756
1.4473,3.77648,0.00139828,2.28536
1.44928,3.77716,0.00297571,2.83245
1.45126,3.77784,0.00499264,3.38832
1.45324,3.77852,0.00743609,3.95244
1.45522,3.7792,0.0102931,4.52431
1.4572,3.77988,0.0135508,5.1034
1.45917,3.78056,0.0171961,5.68919
1.46115,3.78124,0.0212162,6.28119
1.46313,3.78192,0.025598,6.87886
1.46511,3.7826,0.0303286,7.48169
1.46709,3.78328,0.0353951,8.08917
1.46907,3.78396,0.0407845,8.70079
1.47105,3.78464,0.0464839,9.31601
1.47303,3.78532,0.0524802,9.93434
1.47501,3.786,0.0587606,10.5552
1.47699,3.78668,0.0653121,11.1782
1.47897,3.78736,0.0721217,11.8027
1.48094,3.78804,0.0791765,12.4283
1.48292,3.78872,0.0864636,13.0544
1.4849,3.7894,0.0939699,13.6805
1.48688,3.79008,0.101682,14.3061
1.48886,3.79075,0.109588,14.9306
1.49084,3.79143,0.117675,15.5536
1.49282,3.79211,0.125929,16.1746
1.4948,3.79279,0.134337,16.7929
1.49678,3.79347,0.142887,17.4082
1.49876,3.79415,0.151566,18.0199
1.50074,3.79483,0.16036,18.6274
1.50272,3.7955,0.169257,19.2304
1.50469,3.79618,0.178243,19.8281
1.50667,3.79686,0.187307,20.4202
1.50865,3.79754,0.196434,21.0061
1.51063,3.79822,0.205612,21.5853
1.51261,3.79889,0.214828,22.1573
1.51459,3.79957,0.224069,22.7216
1.51657,3.80025,0.233322,23.2776
1.51855,3.80092,0.242574,23.8248
1.52053,3.8016,0.251812,24.3628
1.52251,3.80227,0.261024,24.8909
1.52449,3.80295,0.270195,25.4088
1.52646,3.80362,0.279314,25.9158
1.52844,3.8043,0.288367,26.4115
1.53042,3.80497,0.297342,26.8953
1.5324,3.80565,0.306225,27.3668
1.53438,3.80632,0.315003,27.8253
1.53636,3.807,0.323664,28.2705
1.53834,3.80767,0.332194,28.7017
1.54032,3.80834,0.340581,29.1185
1.5423,3.80901,0.348811,29.5203
1.54428,3.80969,0.356872,29.9067
1.54626,3.81036,0.364751,30.277
1.54823,3.81103,0.372435,30.6309
1.55021,3.8117,0.37991,30.9678
1.55219,3.81237,0.387164,31.2871
1.55417,3.81304,0.394185,31.5884
1.55615,3.81371,0.400958,31.8711
1.55813,3.81438,0.407471,32.1347
1.56011,3.81505,0.413711,32.3788
1.56209,3.81572,0.419665,32.6027
1.56407,3.81638,0.425321,32.806
1.56605,3.81705,0.430664,32.9881
1.56803,3.81772,0.435683,33.1486
1.57001,3.81839,0.440364,33.2869
1.57198,3.81905,0.444694,33.4025
1.57396,3.81972,0.448661,33.4949
1.57594,3.82038,0.452251,33.5636
1.57792,3.82104,0.455452,33.6081
1.5799,3.82171,0.45825,33.6278
1.58188,3.82237,0.460632,33.6222
1.58386,3.82303,0.462587,33.5909
1.58584,3.8237,0.4641,33.5332
1.58782,3.82436,0.465158,33.4487
1.5898,3.82502,0.465749,33.3369
1.59178,3.82568,0.46586,33.1972
1.59375,3.82634,0.465478,33.0292
1.59573,3.827,0.46459,32.8323
1.59771,3.82765,0.463183,32.606
1.59969,3.82831,0.461243,32.3498
1.60167,3.82897,0.458759,32.0631
1.60365,3.82962,0.455717,31.7455
1.60563,3.83028,0.452104,31.3965
1.60761,3.83093,0.447907,31.0155
1.60959,3.83159,0.443113,30.6019
1.61157,3.83224,0.437709,30.1554
1.61355,3.8329,0.431683,29.6754
1.61552,3.83355,0.425021,29.1613
1.6175,3.8342,0.41771,28.6126
1.61948,3.83485,0.409738,28.0289
1.62146,3.8355,0.401092,27.4096
1.62344,3.83615,0.391757,26.7542
1.62542,3.8368,0.381723,26.0622
1.6274,3.83744,0.370975,25.333
1.62938,3.83809,0.359501,24.5662
1.63136,3.83873,0.347287,23.7612
1.63334,3.83938,0.334321,22.9176
1.63532,3.84002,0.32059,22.0347
1.6373,3.84067,0.306081,21.1121
1.63927,3.84131,0.290781,20.1493
1.64125,3.84195,0.274676,19.1458
1.64323,3.84259,0.257755,18.101
1.64521,3.84323,0.240004,17.0144
1.64719,3.84387,0.221409,15.8856
1.64917,3.84451,0.201959,14.7139
1.65115,3.84515,0.18164,13.4989
1.65313,3.84578,0.160439,12.24
1.65511,3.84642,0.138344,10.9368
1.65709,3.84705,0.115341,9.58876
1.65907,3.84769,0.0914169,8.19531
1.66104,3.84832,0.0665595,6.75595
1.66302,3.84895,0.0407555,5.27017
1.665,3.84958,0.013992,3.73746
1.66698,3.85021,-0.0132058,2.16616
1.66896,3.85084,-0.0274042,0.777428
1.67094,3.85148,-0.00195832,0.0101553
1.67292,3.85212,0.0806535,0.179187
1.6749,3.85278,0.194722,1.00379
1.67688,3.85346,0.302526,2.03777
1.67886,3.85414,0.366344,2.83489
1.68084,3.85484,0.348454,2.94894
1.68281,3.85555,0.227999,2.08531
1.68479,3.85626,0.0720616,0.740024
1.68677,3.85697,-0.025182,-0.340317
1.68875,3.85766,-0.0324915,-0.676241
1.69073,3.85831,-0.00356178,-0.148906
1.69271,3.85893,0.00990726,1.20552
1.69469,3.85955,0.00527534,2.55673
1.69667,3.86024,-0.00163693,2.78794
1.69865,3.861,-0.00244812,1.64435
1.70063,3.86176,-0.000377357,0.209925
1.70261,3.86245,0.00080363,-0.458578
1.70459,3.86307,0.000559443,-0.336436
1.70656,3.86367,-0.000224148,0.148358
1.70854,3.86428,-0.000956745,0.706858
1.71052,3.86491,-0.00158742,1.30238
1.7125,3.86556,-0.00212122,1.92443
1.71448,3.86621,-0.00256321,2.56251
1.71646,3.86687,-0.00291845,3.20612
1.71844,3.86755,-0.00319198,3.84475
1.72042,3.86823,-0.00338887,4.46792
1.7224,3.86892,-0.00351417,5.06511
1.72438,3.86961,-0.00357293,5.62584
1.72636,3.87032,-0.00357022,6.1396
1.72833,3.87102,-0.00351108,6.59589
1.73031,3.87173,-0.00340058,6.98421
1.73229,3.87244,-0.00324376,7.29407
1.73427,3.87315,-0.0030457,7.51497
1.73625,3.87386,-0.00281143,7.6364
1.73823,3.87457,-0.00254602,7.64787
1.74021,3.87528,-0.00225452,7.53888
1.74219,3.87599,-0.001942,7.29893
1.74417,3.87669,-0.00161349,6.91751
1.74615,3.87738,-0.00127407,6.38414
1.74813,3.87807,-0.000928779,5.68831
1.7501,3.87875,-0.000582683,4.81952
1.75208,3.87942,-0.000240834,3.76728
1.75406,3.88008,9.06567e-05,2.52249
1.75604,3.88074,0.000308724,1.20561
1.75802,3.88143,0.000136567,0.169259
1.76,3.88215,-0.000592547,-0.26013
1.76198,3.88291,-0.000941558,-0.189505
1.76396,3.88367,0.00058673,0.0535806
1.76594,3.88443,0.00497273,0.240583
1.76792,3.88519,0.0121172,0.351669
1.7699,3.88593,0.0217871,0.392904
1.77188,3.88667,0.0337493,0.370351
1.77385,3.8874,0.0477705,0.290076
1.77583,3.88811,0.0636176,0.158143
1.77781,3.88883,0.0810575,-0.0193831
1.77979,3.88953,0.0998571,-0.236438
1.78177,3.89022,0.119783,-0.486957
1.78375,3.89091,0.140603,-0.764876
1.78573,3.89159,0.162082,-1.06413
1.78771,3.89226,0.183989,-1.37865
1.78969,3.89292,0.20609,-1.70238
1.79167,3.89358,0.228151,-2.02926
1.79365,3.89422,0.24994,-2.3532
1.79562,3.89486,0.271223,-2.66817
1.7976,3.89549,0.291768,-2.96807
1.79958,3.89611,0.311341,-3.24686
1.80156,3.89672,0.329709,-3.49847
1.80354,3.89733,0.346639,-3.71684
1.80552,3.89793,0.361898,-3.89589
1.8075,3.89852,0.375252,-4.02957
1.80948,3.8991,0.386469,-4.11181
1.81146,3.89967,0.395315,-4.13654
1.81344,3.90024,0.401557,-4.09771
1.81542,3.90079,0.404962,-3.98924
1.81739,3.90134,0.405297,-3.80507
1.81937,3.90188,0.402329,-3.53914
1.82135,3.90241,0.395824,-3.18539
1.82333,3.90294,0.38555,-2.73774
1.82531,3.90346,0.371273,-2.19013
1.82729,3.90397,0.35276,-1.53651
1.82927,3.90447,0.329778,-0.770798
1.83125,3.90496,0.302095,0.113041
1.83323,3.90544,0.269861,1.10327
1.83521,3.90593,0.234305,2.13843
1.83719,3.90641,0.19684,3.1484
1.83917,3.9069,0.158879,4.06309
1.84114,3.9074,0.121838,4.81239
1.84312,3.90792,0.0871287,5.32618
1.8451,3.90845,0.0561663,5.53438
1.84708,3.90901,0.0303643,5.36686
1.84906,3.90959,0.0111365,4.75353
1.85104,3.91021,-0.000103271,3.62429
1.85302,3.91085,-0.00299598,2.03557
1.855,3.91144,-0.00121573,0.527652
1.85698,3.91191,0.000707675,-0.26674
1.85896,3.91228,0.000863467,-0.276401
1.86094,3.91268,3.81835e-05,-0.00843705
1.86291,3.91321,-0.000845116,0.100934
1.86489,3.91384,-0.000805446,0.0517049
1.86687,3.91448,0.00113742,-0.0357813
1.86885,3.91509,0.00542507,-0.0960934
1.87083,3.91569,0.0118624,-0.128716
1.87281,3.91626,0.0202175,-0.136882
1.87479,3.9168,0.0302586,-0.123824
1.87677,3.91733,0.0417538,-0.0927745
1.87875,3.91784,0.0544711,-0.0469664
1.88073,3.91833,0.0681788,0.0103678
1.88271,3.9188,0.0826449,0.0759953
1.88468,3.91926,0.0976376,0.146683
1.88666,3.91971,0.112925,0.219199
1.88864,3.92015,0.128275,0.290311
1.89062,3.92057,0.143456,0.356785
1.8926,3.92099,0.158237,0.415389
1.89458,3.9214,0.172384,0.46289
1.89656,3.9218,0.185667,0.496056
1.89854,3.9222,0.197854,0.511653
1.90052,3.9226,0.208712,0.50645
1.9025,3.92299,0.218009,0.477213
1.90448,3.92338,0.225515,0.42071
1.90646,3.92378,0.230997,0.333709
1.90843,3.92418,0.234222,0.212975
1.91041,3.92458,0.23496,0.055278
1.91239,3.92499,0.233007,-0.141927
1.91437,3.9254,0.228451,-0.374035
1.91635,3.92582,0.221554,-0.632206
1.91833,3.92624,0.212581,-0.907545
1.92031,3.92667,0.201796,-1.19116
1.92229,3.92711,0.189463,-1.47415
1.92427,3.92755,0.175847,-1.74762
1.92625,3.928,0.161212,-2.00268
1.92823,3.92845,0.145821,-2.23043
1.9302,3.92891,0.12994,-2.42198
1.93218,3.92938,0.113832,-2.56844
1.93416,3.92985,0.0977628,-2.6609
1.93614,3.93033,0.0819954,-2.69048
1.93812,3.93081,0.0667945,-2.64827
1.9401,3.9313,0.0524243,-2.52539
1.94208,3.9318,0.0391491,-2.31293
1.94406,3.9323,0.0272332,-2.00201
1.94604,3.9328,0.016941,-1.58372
1.94802,3.93332,0.00853659,-1.04918
1.95,3.93383,0.00228435,-0.389485
1.95197,3.93436,-0.00156614,0.402974
1.95395,3.93488,-0.00312376,1.3045
1.95593,3.93541,-0.00286774,2.25905
1.95791,3.93595,-0.00129438,3.2091
1.95989,3.93648,0.00110002,4.09711
1.96187,3.93701,0.00381917,4.86554
1.96385,3.93754,0.00636677,5.45687
1.96583,3.93806,0.00824653,5.81356
1.96781,3.93857,0.00896215,5.87809
1.96979,3.93908,0.00801734,5.59291
1.97177,3.93957,0.0049158,4.9005
1.97375,3.94006,-0.000835803,3.74345
1.97572,3.94053,-0.00726168,2.17638
1.9777,3.941,-0.00544067,0.568967
1.97968,3.94149,0.0141653,-0.671236
1.98166,3.942,0.0519126,-1.40054
1.98364,3.94252,0.100947,-1.68246
1.98562,3.94306,0.154221,-1.58611
1.9876,3.94362,0.204686,-1.18058
1.98958,3.9442,0.245295,-0.534985
1.99156,3.9448,0.269061,0.281606
1.99354,3.94541,0.272935,1.20109
1.99552,3.94603,0.260068,2.15691
1.99749,3.94666,0.23416,3.08266
1.99947,3.94729,0.198907,3.91193
2.00145,3.94791,0.158009,4.5783
2.00343,3.94851,0.115163,5.01536
2.00541,3.9491,0.0740686,5.15671
2.00739,3.94967,0.0384231,4.93592
2.00937,3.95021,0.0119251,4.28659
2.01135,3.95071,-0.00175144,3.14347
2.01333,3.95119,-0.00289805,1.63367
2.01531,3.95172,-0.000139185,0.288433
2.01729,3.95236,-0.00199177,-0.361173
2.01926,3.95308,-0.00479662,-0.321758
2.02124,3.95382,0.00237291,0.0788942
2.02322,3.95454,0.0268167,0.590788
2.0252,3.95523,0.0667576,1.16403
2.02718,3.95588,0.119062,1.77863
2.02916,3.95652,0.180596,2.41459
2.03114,3.95713,0.248226,3.05193
2.03312,3.95774,0.318818,3.67066
2.0351,3.95833,0.389239,4.25078
2.03708,3.95891,0.456355,4.77231
2.03906,3.9595,0.517032,5.21526
2.04104,3.96008,0.568136,5.55963
2.04301,3.96068,0.606535,5.78544
2.04499,3.96128,0.629093,5.8727
2.04697,3.9619,0.632677,5.80141
2.04895,3.96254,0.614154,5.55159
2.05093,3.9632,0.57039,5.10325
2.05291,3.96389,0.498252,4.43639
2.05489,3.96461,0.394604,3.53103
2.05687,3.96537,0.257348,2.37348
2.05885,3.96614,0.110018,1.10657
2.06083,3.96687,0.00287408,0.0362449
2.06281,3.96753,-0.0273565,-0.544417
2.06478,3.96814,-0.011093,-0.435615
2.06676,3.96878,0.00317999,0.519523
2.06874,3.96948,-0.000863472,1.9418
2.07072,3.97023,-0.00106812,2.81059
2.0727,3.97103,0.0180164,2.31009
2.07468,3.97183,0.0240471,0.916936
2.07666,3.97257,-0.0292145,-0.466335
2.07864,3.97325,-0.101269,-1.06322
2.08062,3.9739,-0.0323728,-0.270855
2.0826,3.97459,0.263159,1.99935
2.08458,3.97538,0.383278,2.89964
2.08655,3.97623,0.206167,1.61792
2.08853,3.97705,-0.0095523,-0.0842537
2.09051,3.97777,-0.0693602,-0.788168
2.09249,3.97846,-0.0260702,-0.446912
2.09447,3.97921,0.0192829,0.684614
2.09645,3.98002,0.0242443,2.00595
2.09843,3.98081,-0.000344725,2.60224
2.10041,3.98153,-0.0348146,1.88414
2.10239,3.98223,-0.0327538,0.570836
2.10437,3.98296,0.0562147,-0.326302
2.10635,3.98374,0.219609,-0.429801
2.10833,3.98456,0.379316,-0.0240052
2.1103,3.9854,0.468404,0.607709
2.11228,3.98626,0.484824,1.32771
2.11426,3.98711,0.444975,2.03979
2.11624,3.98796,0.365255,2.64776
2.11822,3.9888,0.262062,3.05542
2.1202,3.98962,0.151796,3.16656
2.12218,3.99042,0.0508551,2.88499
2.12416,3.99118,-0.0242874,2.12002
2.12614,3.99193,-0.0538434,1.02571
2.12812,3.99268,-0.0134615,0.0931614
2.1301,3.99349,0.113192,-0.251733
2.13207,3.99432,0.290019,-0.146391
2.13405,3.99518,0.460962,0.0558285
2.13603,3.99603,0.591999,0.141747
2.13801,3.99689,0.684083,0.120999
2.13999,3.99775,0.741265,0.0229607
2.14197,3.9986,0.767595,-0.122995
2.14395,3.99945,0.767124,-0.287492
2.14593,4.0003,0.743903,-0.441157
2.14791,4.00114,0.701982,-0.554614
2.14989,4.00198,0.645413,-0.59849
2.15187,4.00282,0.578246,-0.543409
2.15384,4.00364,0.504531,-0.359997
2.15582,4.00446,0.42832,-0.0188794
2.1578,4.00528,0.353278,0.492115
2.15978,4.00609,0.281304,1.10674
2.16176,4.0069,0.2138,1.73641
2.16374,4.00773,0.152166,2.29254
2.16572,4.00857,0.097801,2.68654
2.1677,4.00943,0.0521051,2.82984
2.16968,4.01033,0.0164783,2.63386
2.17166,4.01125,-0.00763213,2.01397
2.17364,4.01221,-0.0166616,1.063
2.17562,4.01316,-0.00412556,0.11843
2.17759,4.01408,0.0353409,-0.507113
2.17957,4.01498,0.0987203,-0.769738
2.18155,4.01585,0.179743,-0.729798
2.18353,4.01669,0.272134,-0.447875
2.18551,4.01752,0.369615,0.0154473
2.18749,4.01833,0.46591,0.599586
2.18947,4.01914,0.554744,1.24396
2.19145,4.01994,0.629839,1.88798
2.19343,4.02075,0.684919,2.47107
2.19541,4.02156,0.713708,2.93265
2.19739,4.02238,0.709929,3.21212
2.19936,4.02322,0.667306,3.24892
2.20134,4.02408,0.579562,2.98245
2.20332,4.02496,0.440421,2.35214
2.2053,4.02587,0.254276,1.37113
2.20728,4.02678,0.0742445,0.389313
2.20926,4.02768,-0.0340207,-0.15793
2.21124,4.02856,-0.0497315,-0.182436
2.21322,4.02942,-0.00603906,-0.0134962
2.2152,4.03026,0.0641033,0.0472624
2.21718,4.0311,0.145942,-0.0209263
2.21916,4.03193,0.230793,-0.145167
2.22113,4.03274,0.309977,-0.252501
2.22311,4.03356,0.374813,-0.269967
2.22509,4.03437,0.416622,-0.124606
2.22707,4.03517,0.427241,0.250404
2.22905,4.03598,0.40668,0.825211
2.23103,4.03677,0.36145,1.49299
2.23301,4.03757,0.298244,2.14479
2.23499,4.03836,0.223754,2.67164
2.23697,4.03915,0.144673,2.96459
2.23895,4.03993,0.067692,2.91469
2.24093,4.04071,-0.000495247,2.41298
2.24291,4.04148,-0.0475683,1.45081
2.24488,4.04227,-0.0392292,0.411218
2.24686,4.04311,0.0619024,-0.239106
2.24884,4.04398,0.235929,-0.333676
2.25082,4.04486,0.402869,-0.0209033
2.2528,4.04573,0.494496,0.543975
2.25478,4.04657,0.509384,1.24265
2.25676,4.04739,0.465199,1.96739
2.25874,4.04819,0.379608,2.61042
2.26072,4.04895,0.270277,3.06402
2.2627,4.04968,0.154873,3.22043
2.26468,4.05038,0.0510632,2.97189
2.26665,4.05104,-0.0234795,2.21618
2.26863,4.05169,-0.0507994,1.09851
2.27061,4.05239,-0.01255,0.106444
2.27259,4.05318,0.103276,-0.323511
2.27457,4.05402,0.268473,-0.235787
2.27655,4.05487,0.439434,0.139103
2.27853,4.05567,0.588597,0.643295
2.28051,4.05644,0.713999,1.23523
2.28249,4.05717,0.815959,1.88374
2.28447,4.05787,0.894799,2.55763
2.28645,4.05854,0.950837,3.22571
2.28842,4.0592,0.984392,3.85682
2.2904,4.05985,0.995786,4.41976
2.29238,4.06048,0.985338,4.88334
2.29436,4.06111,0.953366,5.2164
2.29634,4.06174,0.900192,5.38775
2.29832,4.06239,0.826135,5.36619
2.3003,4.06304,0.731515,5.12056
2.30228,4.06371,0.616651,4.61966
2.30426,4.0644,0.481863,3.83232
2.30624,4.06512,0.327503,2.72772
2.30822,4.06586,0.164883,1.40326
2.3102,4.06656,0.032306,0.272001
2.31217,4.06719,-0.031169,-0.24249
2.31415,4.06773,-0.0293236,-0.196449
2.31613,4.06826,0.00429657,0.0205537
2.31811,4.0688,0.0431374,0.111634
2.32009,4.06936,0.0824067,0.0648648
2.32207,4.06993,0.121187,-0.0809474
2.32405,4.07052,0.15856,-0.286998
2.32603,4.07111,0.193609,-0.514481
2.32801,4.07171,0.225415,-0.724592
2.32999,4.07231,0.253062,-0.878524
2.33197,4.07291,0.275631,-0.937474
2.33394,4.0735,0.292204,-0.862634
2.33592,4.07408,0.301864,-0.615201
2.3379,4.07466,0.303693,-0.156369
2.33988,4.07521,0.296933,0.545035
2.34186,4.07575,0.282242,1.45231
2.34384,4.07628,0.26102,2.4932
2.34582,4.07678,0.234674,3.59513
2.3478,4.07726,0.20461,4.68554
2.34978,4.07773,0.172236,5.69184
2.35176,4.07816,0.138958,6.54147
2.35374,4.07858,0.106182,7.16186
2.35571,4.07897,0.0753164,7.48044
2.35769,4.07933,0.047767,7.42462
2.35967,4.07966,0.0249406,6.92186
2.36165,4.07997,0.00824423,5.89956
2.36363,4.08024,-0.000919671,4.28577
2.36561,4.0805,-0.00264481,2.2306
2.36759,4.08078,-0.00073932,0.435388
2.36957,4.08113,0.000660048,-0.376775
2.37155,4.08152,0.000514531,-0.294304
2.37353,4.08183,-4.57536e-05,0.0263513
2.37551,4.08202,-0.000186385,0.109384
2.37748,4.0822,-5.65137e-05,0.0348283
2.37946,4.08248,3.30732e-05,-0.0250938
2.38144,4.08286,1.17158e-05,-0.0203539
2.38342,4.08322,1.96895e-06,0.000752365
2.3854,4.08347,7.00601e-05,0.00199678
2.38738,4.08364,7.35789e-05,-0.00270071
2.38936,4.08377,-0.000153874,0.00937603
2.39134,4.08389,-0.000378429,0.0254086
2.39332,4.084,3.55391e-06,-0.000247751
2.3953,4.08411,0.00149919,-0.106103
2.39728,4.08423,0.00417927,-0.297596
2.39926,4.08434,0.0080068,-0.571998
2.40123,4.08445,0.0129448,-0.926581
2.40321,4.08456,0.0189562,-1.35861
2.40519,4.08468,0.0260042,-1.86537
2.40717,4.08479,0.0340516,-2.44412
2.40915,4.08491,0.0430615,-3.09213
2.41113,4.08502,0.0529969,-3.80667
2.41311,4.08513,0.0638209,-4.58502
2.41509,4.08525,0.0754963,-5.42445
2.41707,4.08537,0.0879863,-6.32223
2.41905,4.08548,0.101254,-7.27562
2.42103,4.0856,0.115262,-8.2819
2.423,4.08572,0.129973,-9.33834
2.42498,4.08584,0.145352,-10.4422
2.42696,4.08596,0.161359,-11.5908
2.42894,4.08608,0.17796,-12.7813
2.43092,4.0862,0.195116,-14.0111
2.4329,4.08632,0.21279,-15.2774
2.43488,4.08645,0.230946,-16.5775
2.43686,4.08657,0.249547,-17.9087
2.43884,4.0867,0.268555,-19.2681
2.44082,4.08682,0.287934,-20.6532
2.4428,4.08695,0.307647,-22.0611
2.44477,4.08708,0.327656,-23.4892
2.44675,4.08722,0.347925,-24.9347
2.44873,4.08735,0.368416,-26.3949
2.45071,4.08748,0.389094,-27.867
2.45269,4.08762,0.40992,-29.3483
2.45467,4.08776,0.430857,-30.8362
2.45665,4.0879,0.451869,-32.3278
2.45863,4.08804,0.472919,-33.8204
2.46061,4.08819,0.49397,-35.3113
2.46259,4.08833,0.514985,-36.7979
2.46457,4.08848,0.535926,-38.2772
2.46655,4.08863,0.556757,-39.7467
2.46852,4.08878,0.57744,-41.2036
2.4705,4.08894,0.59794,-42.6451
2.47248,4.08909,0.618218,-44.0686
2.47446,4.08925,0.638238,-45.4713
2.47644,4.08941,0.657963,-46.8504
2.47842,4.08958,0.677355,-48.2033
2.4804,4.08974,0.696378,-49.5272
2.48238,4.08991,0.714996,-50.8194
2.48436,4.09008,0.73317,-52.0772
2.48634,4.09026,0.750863,-53.2978
2.48832,4.09043,0.76804,-54.4784
2.49029,4.09061,0.784662,-55.6165
2.49227,4.0908,0.800694,-56.7092
2.49425,4.09098,0.816097,-57.7538
2.49623,4.09117,0.830835,-58.7476
2.49821,4.09136,0.844871,-59.6878
2.50019,4.09156,0.858167,-60.5718
2.50217,4.09175,0.870688,-61.3967
2.50415,4.09195,0.882396,-62.1599
2.50613,4.09216,0.893253,-62.8587
2.50811,4.09237,0.903223,-63.4903
2.51009,4.09258,0.91227,-64.0519
2.51206,4.09279,0.920355,-64.5409
2.51404,4.09301,0.927442,-64.9545
2.51602,4.09323,0.933494,-65.29
2.518,4.09346,0.938474,-65.5447
2.51998,4.09369,0.942345,-65.7158
2.52196,4.09392,0.94507,-65.8006
2.52394,4.09415,0.946612,-65.7964
2.52592,4.09439,0.946934,-65.7004
2.5279,4.09464,0.945999,-65.5099
2.52988,4.09489,0.94377,-65.2223
2.53186,4.09514,0.94021,-64.8346
2.53384,4.0954,0.935282,-64.3444
2.53581,4.09566,0.92895,-63.7487
2.53779,4.09592,0.921175,-63.0449
2.53977,4.09619,0.911921,-62.2302
2.54175,4.09646,0.901151,-61.3019
2.54373,4.09674,0.888828,-60.2574
2.54571,4.09702,0.874916,-59.0937
2.54769,4.09731,0.859376,-57.8083
2.54967,4.0976,0.842173,-56.3984
2.55165,4.0979,0.823269,-54.8613
2.55363,4.0982,0.802626,-53.1942
2.55561,4.0985,0.780209,-51.3944
2.55758,4.09882,0.75598,-49.4592
2.55956,4.09913,0.729902,-47.3859
2.56154,4.09945,0.701939,-45.1716
2.56352,4.09978,0.672052,-42.8138
2.5655,4.10011,0.640206,-40.3096
2.56748,4.10044,0.606363,-37.6564
2.56946,4.10078,0.570486,-34.8513
2.57144,4.10113,0.532538,-31.8918
2.57342,4.10148,0.492482,-28.775
2.5754,4.10184,0.450282,-25.4982
2.57738,4.1022,0.405899,-22.0587
2.57935,4.10257,0.359298,-18.4537
2.58133,4.10294,0.310442,-14.6806
2.58331,4.10332,0.259292,-10.7366
2.58529,4.1037,0.205813,-6.61893
2.58727,4.10409,0.149967,-2.32492
2.58925,4.10449,0.0919529,2.11719
2.59123,4.10487,0.0380828,5.87638
2.59321,4.10519,0.0011894,7.26518
2.59519,4.10542,-0.00964966,5.20332
2.59717,4.10564,-0.00435629,1.63748
2.59915,4.10594,0.00185833,-0.658196
2.59999,4.1061,0.0025592,-0.902782