File: Data/processed_data/Cycle 520_discharge.csv
Current(A),Test_Time(s),Voltage(V),Discharge_Capacity(Ah),dV/dQ(V/Ah),dQ/dV(Ah/V),Discharge_Energy(Wh),Power(W),Downsampled Voltage (V),Downsampled Capacity (Ah),dQ/dV from downsampled Voltage (Ah/V),dV/dQ from downsampled Cpacity (V/Ah),Downsampled Energy (Wh),Downsampled Power (W),dP/dE from downsampled Energy (W/Wh),dQ/dV from LEAN (Ah/V),Delta_V (V) in LEAN
-0.14999,12257.959,4.0726,0.31986,0.0,,1.3107,-0.61085,,,,,1.3107,-0.610866,0.00626628,,0.0049
-0.14999,12437.959,4.0719,0.32735,0.0,,1.3413,-0.61074,,,,,1.3413,-0.610725,0.00263646,,0.0049
-0.14999,12617.959,4.0714,0.33485,,0.0,1.3718,-0.61067,,,,,1.3718,-0.610662,0.00223273,,0.0049
-0.15,12797.959,4.0706,0.34235,0.0,,1.4023,-0.61059,,,,,1.4023,-0.610592,0.00265323,,0.0049
-0.14999,12977.959,4.0702,0.34984,,0.0,1.4328,-0.61049,,,,,1.4328,-0.610488,0.00254353,,0.0049
-0.14999,13157.96,4.0695,0.35734,0.0,,1.4633,-0.61038,,,,,1.4633,-0.610423,0.00301635,,0.0049
-0.14999,13337.959,4.0688,0.36484,,0.0,1.4938,-0.61028,,,,,1.4938,-0.610307,0.00375075,,0.0049
-0.15,13517.959,4.0682,0.37233,0.0,,1.5243,-0.61023,,,,,1.5243,-0.610188,0.00366137,,0.0049
-0.15,13697.959,4.0673,0.37983,,0.0,1.5548,-0.6101,,,,,1.5548,-0.610089,0.00346822,,0.0049
-0.14999,13877.959,4.0667,0.38733,0.0,0.0,1.5853,-0.60996,,,,,1.5853,-0.609964,0.00395932,,0.0049
-0.15,14057.959,4.0656,0.39483,,,1.6158,-0.60984,,,,,1.6158,-0.609816,0.00453996,,0.0049
-0.14999,14237.959,4.0644,0.40232,0.0,0.0,1.6463,-0.60962,,,,,1.6463,-0.609661,0.00495743,,0.0049
-0.14999,14417.959,4.0635,0.40982,,,1.6768,-0.60948,,,,,1.6768,-0.609497,0.00546762,,0.0049
-0.15,14597.959,4.062,0.41732,0.10506,7.0112,1.7072,-0.6093,4.062,0.41732,-5.71152,-0.180529,1.7072,-0.609298,0.00754615,,0.0049
-0.14999,14777.959,4.0607,0.42481,,,1.7377,-0.60906,,,,,1.7377,-0.609063,0.00707027,,0.0049
-0.15,14957.959,4.059,0.43231,0.0,0.0,1.7681,-0.60885,,,,,1.7681,-0.608824,0.00842969,,0.0049
-0.14999,15137.96,4.0573,0.43981,,,1.7985,-0.60855,,,,,1.7985,-0.608586,0.00840171,,0.0049
-0.15,15317.96,4.0557,0.4473,0.0,0.0,1.8289,-0.60836,,,,,1.8289,-0.608302,0.00834338,,0.0049
-0.15,15497.96,4.0536,0.4548,,,1.8593,-0.60804,,,,,1.8593,-0.608039,0.00977636,,0.0049
-0.14999,15677.96,4.0516,0.4623,0.22531,4.0026,1.8897,-0.6077,,,,,1.8897,-0.607743,0.00922938,,0.0049
-0.14999,15857.96,4.0498,0.46979,,,1.9201,-0.60743,4.0498,0.46979,-3.60773,-0.279865,1.9201,-0.607434,0.0109546,,0.0049
-0.15,16037.959,4.0474,0.47729,0.0,0.0,1.9504,-0.60711,,,,,1.9504,-0.607094,0.0111611,,0.0049
-0.14999,16217.96,4.0454,0.48479,,0.0,1.9808,-0.60677,,,,,1.9808,-0.606754,0.0109338,,0.0049
-0.14999,16397.959,4.0429,0.49229,0.0,,2.0111,-0.60639,,,,,2.0111,-0.606434,0.0109153,,0.0049
-0.15,16577.959,4.0408,0.49978,0.0,,2.0414,-0.60612,,,,,2.0414,-0.60609,0.0114208,,0.0049
-0.15,16757.96,4.0383,0.50728,,0.0,2.0717,-0.60575,4.0383,0.50728,-3.08736,-0.324,2.0717,-0.60571,0.013079,,0.0049
-0.14999,16937.959,4.0357,0.51478,0.0,,2.1019,-0.60531,,,,,2.1019,-0.605353,0.0115379,,0.0049
-0.15,17117.96,4.0334,0.52227,,0.0,2.1322,-0.60501,,,,,2.1322,-0.604982,0.011775,,0.0049
-0.15,17297.959,4.0306,0.52977,,,2.1624,-0.60459,,,,,2.1624,-0.604594,0.0135221,5.51015,0.0049
-0.14999,17477.959,4.0281,0.53727,0.0,0.0,2.1926,-0.60417,,,,,2.1926,-0.604182,0.0133783,7.06758,0.0049
-0.14997,17657.96,4.0255,0.54477,,,2.2228,-0.6037,,,,,2.2228,-0.603765,0.0137346,7.06758,0.0049
-0.14999,17837.959,4.0226,0.55226,0.0,0.0,2.253,-0.60335,,,,,2.253,-0.603367,0.0135083,6.64173,0.0049
-0.14999,18017.959,4.0199,0.55976,0.0,0.0,2.2831,-0.60294,,,,,2.2831,-0.602935,0.0147132,6.64173,0.0049
-0.14999,18197.96,4.0169,0.56726,,2.6607,2.3133,-0.60249,,,,,2.3133,-0.602527,0.0142594,5.17419,0.0049
-0.15,18377.959,4.0142,0.57476,0.0,,2.3434,-0.60213,4.0142,0.57476,-2.67398,-0.375203,2.3434,-0.602101,0.0140399,5.17419,0.0049
-0.15,18557.96,4.0111,0.58225,,2.5757,2.3735,-0.60167,,,,,2.3735,-0.601666,0.0156337,4.09674,0.0049
-0.15,18737.959,4.008,0.58975,0.0,,2.4035,-0.6012,,,,,2.4035,-0.601219,0.0152576,3.6337,0.0049
-0.15,18917.959,4.0052,0.59725,,,2.4336,-0.60078,,,,,2.4336,-0.600743,0.0156535,3.6337,0.0049
-0.15,19097.96,4.002,0.60475,0.40113,0.0,2.4636,-0.6003,4.002,0.60475,-2.4091,-0.415203,2.4636,-0.600281,0.0160548,3.35878,0.0049
-0.14998,19277.958,3.999,0.61224,,0.0,2.4936,-0.59977,,,,,2.4936,-0.599804,0.0148776,3.14083,0.0049
-0.14999,19457.959,3.996,0.61974,0.0,,2.5235,-0.59936,,,,,2.5235,-0.599355,0.01556,3.14083,0.0049
-0.15,19637.96,3.9927,0.62724,,0.0,2.5535,-0.59891,,,,,2.5535,-0.598898,0.01569,2.97223,0.0049
-0.15,19817.96,3.9898,0.63474,0.0,0.0,2.5834,-0.59847,3.9898,0.63474,-2.47477,-0.405218,2.5834,-0.598423,0.0156585,2.97223,0.0049
-0.14999,19997.959,3.9865,0.64223,,2.4019,2.6133,-0.59794,,,,,2.6133,-0.597977,0.0160245,2.84337,0.0049
-0.15,20177.959,3.9834,0.64973,0.0,,2.6432,-0.59751,,,,,2.6432,-0.597501,0.0158356,2.74566,0.0049
-0.14999,20357.959,3.9805,0.65723,,,2.673,-0.59704,,,,,2.673,-0.597018,0.016061,2.74566,0.0049
-0.15,20537.96,3.9772,0.66473,0.0,0.0,2.7029,-0.59658,,,,,2.7029,-0.596564,0.0155732,2.66616,0.0049
-0.14998,20717.96,3.9744,0.67222,,0.0,2.7327,-0.59608,3.9744,0.67222,-2.56613,-0.390185,2.7327,-0.596112,0.014485,2.58567,0.0049
-0.15,20897.959,3.9714,0.67972,0.40431,2.4902,2.7625,-0.59571,,,,,2.7625,-0.595679,0.0147238,2.58567,0.0049
-0.15,21077.96,3.9682,0.68722,,,2.7922,-0.59523,,,,,2.7922,-0.595247,0.0149078,2.52771,0.0049
-0.15,21257.959,3.9655,0.69471,0.0,,2.822,-0.59483,,,,,2.822,-0.594803,0.0148007,2.52771,0.0049
-0.14999,21437.959,3.9625,0.70221,,0.0,2.8517,-0.59434,,,,,2.8517,-0.594362,0.0150927,2.49756,0.0049
-0.14999,21617.959,3.9597,0.70971,0.0,0.0,2.8814,-0.59392,,,,,2.8814,-0.593919,0.0141273,2.44821,0.0049
-0.14999,21797.96,3.957,0.71721,,2.6764,2.9111,-0.59351,,,,,2.9111,-0.593502,0.0136976,2.44821,0.0049
-0.14999,21977.96,3.9541,0.7247,0.0,,2.9407,-0.59308,3.9541,0.7247,-2.80466,-0.356647,2.9407,-0.593111,0.0132973,2.40746,0.0049
-0.14999,22157.96,3.9516,0.7322,0.36826,2.7611,2.9704,-0.5927,,,,,2.9704,-0.592704,0.0132152,2.40746,0.0049
-0.15,22337.959,3.9488,0.7397,,,3.0,-0.59232,,,,,3.0,-0.592296,0.014307,2.40846,0.0049
-0.14998,22517.96,3.9462,0.7472,0.0,2.8542,3.0296,-0.59185,3.9462,0.7472,-2.94427,-0.340335,3.0296,-0.591916,0.0119947,2.40846,0.0049
-0.15,22697.959,3.9439,0.75469,,,3.0591,-0.59159,,,,,3.0591,-0.591547,0.0130906,2.41706,0.0049
-0.14999,22877.96,3.9411,0.76219,,2.9866,3.0887,-0.59113,,,,,3.0887,-0.591158,0.0133667,2.41706,0.0049
-0.14999,23057.96,3.9389,0.76969,0.0,,3.1182,-0.5908,,,,,3.1182,-0.590789,0.0115687,2.43861,0.0049
-0.14999,23237.96,3.9364,0.77719,,3.0998,3.1478,-0.59042,,,,,3.1478,-0.59046,0.0118047,2.43861,0.0049
-0.15,23417.959,3.9342,0.78469,0.0,,3.1773,-0.59013,3.9342,0.78469,-3.26362,-0.306634,3.1773,-0.590099,0.0118917,2.50616,0.0049
-0.14999,23597.959,3.9317,0.79218,0.31563,3.2294,3.2068,-0.58972,,,,,3.2068,-0.58975,0.0123491,2.50616,0.0049
-0.14999,23777.959,3.9297,0.79968,,,3.2362,-0.58942,3.9297,0.79968,-3.40951,-0.293548,3.2362,-0.589412,0.0105995,2.55984,0.0049
-0.15,23957.96,3.9273,0.80718,0.0,0.0,3.2657,-0.5891,,,,,3.2657,-0.589111,0.0107892,2.55984,0.0049
-0.15,24137.96,3.9253,0.81468,,0.0,3.2951,-0.5888,,,,,3.2951,-0.588785,0.0115064,2.58567,0.0049
-0.14999,24317.959,3.9233,0.82217,0.0,,3.3246,-0.58846,,,,,3.3246,-0.588447,0.0108909,2.58567,0.0049
-0.15,24497.96,3.921,0.82967,,,3.354,-0.58815,,,,,3.354,-0.588154,0.00941202,2.58567,0.0049
-0.14999,24677.959,3.9192,0.83717,0.0,0.0,3.3834,-0.58784,,,,,3.3834,-0.587846,0.0110525,2.63402,0.0049
-0.14999,24857.959,3.917,0.84467,,,3.4127,-0.58751,,,,,3.4127,-0.587541,0.00974264,2.63402,0.0049
-0.15,25037.96,3.9153,0.85216,0.0,0.0,3.4421,-0.5873,,,,,3.4421,-0.587249,0.00953927,2.73706,0.0049
-0.14998,25217.959,3.9133,0.85966,,,3.4714,-0.58692,,,,,3.4714,-0.586973,0.0101255,2.73706,0.0049
-0.15001,25397.96,3.9114,0.86716,,3.919,3.5008,-0.58675,,,,,3.5008,-0.586689,0.00904007,2.73706,0.0049
-0.15,25577.959,3.9096,0.87466,0.0,,3.5301,-0.58644,,,,,3.5301,-0.586409,0.00926811,2.85297,0.0049
-0.15,25757.96,3.9076,0.88216,,0.0,3.5594,-0.58614,,,,,3.5594,-0.586138,0.00996147,2.85297,0.0049
-0.14998,25937.959,3.906,0.88965,0.0,,3.5887,-0.58582,3.906,0.88965,-4.05076,-0.24819,3.5887,-0.585832,0.00939299,2.85297,0.0049
-0.14999,26117.96,3.9041,0.89715,,0.0,3.618,-0.58558,,,,,3.618,-0.585571,0.00871252,2.94541,0.0049
-0.14999,26297.959,3.9021,0.90465,0.0,,3.6472,-0.58528,3.9021,0.90465,-4.05076,-0.24819,3.6472,-0.585328,0.00915539,2.94541,0.0049
-0.15,26477.959,3.9006,0.91215,0.0,0.0,3.6765,-0.58509,,,,,3.6765,-0.585046,0.00951344,3.06133,0.0049
-0.15001,26657.959,3.8985,0.91965,,,3.7057,-0.58481,,,,,3.7057,-0.584771,0.00933054,3.06133,0.0049
-0.14999,26837.96,3.8968,0.92714,0.0,4.1052,3.7349,-0.58448,,,,,3.7349,-0.584493,0.00922195,3.06133,0.0049
-0.14999,27017.959,3.8947,0.93464,,,3.7642,-0.58417,,,,,3.7642,-0.584215,0.00936328,3.18157,0.0049
-0.15,27197.959,3.8929,0.94214,0.0,0.0,3.7934,-0.58394,,,,,3.7934,-0.583927,0.0100485,3.18157,0.0049
-0.14999,27377.96,3.8911,0.94964,,,3.8225,-0.58363,,,,,3.8225,-0.583629,0.010373,3.31804,0.0049
-0.15,27557.959,3.8889,0.95713,0.0,0.0,3.8517,-0.58334,,,,,3.8517,-0.583336,0.0103934,3.31804,0.0049
-0.15,27737.959,3.887,0.96463,,,3.8808,-0.58305,,,,,3.8808,-0.583026,0.0106582,3.31804,0.0049
-0.15,27917.96,3.8847,0.97213,0.0,0.0,3.91,-0.58271,,,,,3.91,-0.582718,0.0110903,3.51017,0.0049
-0.15,28097.959,3.8827,0.97963,,,3.9391,-0.58241,,,,,3.9391,-0.582382,0.0121633,3.51017,0.0049
-0.15,28277.96,3.8802,0.98712,0.0,0.0,3.9682,-0.58203,,,,,3.9682,-0.582014,0.0125778,3.70658,0.0049
-0.15,28457.959,3.8779,0.99462,,,3.9973,-0.58169,3.8779,0.99462,-3.20556,-0.312381,3.9973,-0.581663,0.011488,3.70658,0.0049
-0.14999,28637.96,3.8755,1.0021,0.0,,4.0264,-0.58129,,,,,4.0264,-0.581309,0.012679,3.83017,0.0049
-0.14999,28817.959,3.8729,1.0096,,0.0,4.0554,-0.5809,,,,,4.0554,-0.580941,0.0128193,3.83017,0.0049
-0.15,28997.96,3.8704,1.0171,0.0,,4.0844,-0.58056,3.8704,1.0171,-2.82242,-0.354444,4.0844,-0.580544,0.0137368,3.94076,0.0049
-0.15,29177.959,3.8675,1.0246,,0.0,4.1134,-0.58013,,,,,4.1134,-0.580133,0.0150153,3.94076,0.0049
-0.14999,29357.96,3.8648,1.0321,0.0,0.0,4.1424,-0.57968,,,,,4.1424,-0.579688,0.0146452,4.03091,0.0049
-0.14999,29537.959,3.862,1.0396,0.36707,,4.1714,-0.57926,3.862,1.0396,-2.5641,-0.39,4.1714,-0.579248,0.0146267,4.03091,0.0049
-0.14998,29717.959,3.859,1.0471,,0.0,4.2003,-0.57877,,,,,4.2003,-0.578833,0.014466,4.062,0.0049
-0.14999,29897.959,3.8563,1.0546,0.0,2.5864,4.2293,-0.57841,,,,,4.2293,-0.578407,0.014965,3.97295,0.0049
-0.14999,30077.959,3.8532,1.0621,,,4.2582,-0.57794,,,,,4.2582,-0.577953,0.0164912,3.97295,0.0049
-0.14999,30257.959,3.8502,1.0696,,,4.287,-0.57749,3.8502,1.0696,-2.56748,-0.39,4.287,-0.577515,0.015037,3.82151,0.0049
-0.15,30437.959,3.8475,1.0771,0.0,0.0,4.3159,-0.57713,,,,,4.3159,-0.577087,0.0149415,3.82151,0.0049
-0.15,30617.959,3.8443,1.0846,,0.0,4.3447,-0.57665,,,,,4.3447,-0.576653,0.0156141,3.6036,0.0049
-0.15,30797.96,3.8415,1.0921,0.3932,2.5451,4.3735,-0.57623,,,,,4.3735,-0.576199,0.0150641,3.37699,0.0049
-0.14999,30977.959,3.8385,1.0996,,,4.4023,-0.57574,,,,,4.4023,-0.575758,0.0152681,3.37699,0.0049
-0.14999,31157.959,3.8356,1.1071,0.0,,4.4311,-0.5753,,,,,4.4311,-0.575336,0.0145566,3.12361,0.0049
-0.15,31337.959,3.8329,1.1146,,0.0,4.4598,-0.57494,,,,,4.4598,-0.574902,0.0145493,3.12361,0.0049
-0.15,31517.959,3.83,1.1221,0.0,,4.4886,-0.5745,3.83,1.1221,-2.63158,-0.38,4.4886,-0.574496,0.0147119,2.90034,0.0049
-0.15,31697.96,3.8273,1.1296,,0.0,4.5173,-0.5741,,,,,4.5173,-0.574076,0.0142636,2.75427,0.0049
-0.15,31877.959,3.8246,1.1371,0.0,0.0,4.546,-0.57369,,,,,4.546,-0.573653,0.0146106,2.75427,0.0049
-0.15,32057.959,3.8217,1.1446,0.36973,2.7154,4.5746,-0.57326,3.8217,1.1446,-2.73658,-0.365556,4.5746,-0.573262,0.0141511,2.67477,0.0049
-0.15,32237.959,3.8191,1.1521,,,4.6033,-0.57287,,,,,4.6033,-0.572841,0.0143967,2.67477,0.0049
-0.15,32417.959,3.8163,1.1596,0.0,2.764,4.6319,-0.57245,,,,,4.6319,-0.572432,0.0145234,2.61681,0.0049
-0.15,32597.959,3.8136,1.1671,,,4.6605,-0.57204,3.8136,1.1671,-2.84995,-0.350889,4.6605,-0.57202,0.0138118,2.61681,0.0049
-0.14999,32777.96,3.8108,1.1746,,2.7808,4.6891,-0.57158,,,,,4.6891,-0.571624,0.0142289,2.57706,0.0049
-0.14999,32957.959,3.8083,1.1821,0.0,,4.7176,-0.57121,,,,,4.7176,-0.571225,0.0129933,2.57706,0.0049
-0.15,33137.959,3.8057,1.1896,,,4.7462,-0.57086,3.8057,1.1896,-2.76583,-0.362,4.7462,-0.570815,0.0155012,2.54592,0.0049
-0.14999,33317.96,3.8029,1.1971,0.0,0.0,4.7747,-0.5704,,,,,4.7747,-0.570421,0.013721,2.53632,0.0049
-0.15,33497.959,3.8005,1.2046,0.0,,4.8032,-0.57008,,,,,4.8032,-0.570013,0.0130634,2.53632,0.0049
-0.14999,33677.96,3.7977,1.2121,,0.0,4.8317,-0.56962,3.7977,1.2121,-2.90965,-0.343684,4.8317,-0.56965,0.0139823,2.58567,0.0049
-0.14999,33857.959,3.7953,1.2195,0.0,,4.8602,-0.56926,,,,,4.8602,-0.56925,0.012724,2.58567,0.0049
-0.14999,34037.96,3.7927,1.227,,0.0,4.8886,-0.56887,,,,,4.8886,-0.568881,0.0134769,2.65755,0.0049
-0.15,34217.96,3.79,1.2345,0.0,,4.917,-0.5685,3.79,1.2345,-2.94199,-0.34,4.917,-0.568511,0.013093,2.65755,0.0049
-0.15,34397.96,3.7877,1.242,,0.0,4.9454,-0.56816,,,,,4.9454,-0.568116,0.0137188,2.70591,0.0049
-0.14999,34577.959,3.785,1.2495,0.0,0.0,4.9738,-0.56771,,,,,4.9738,-0.567734,0.0139936,2.70591,0.0049
-0.14999,34757.96,3.7825,1.257,,,5.0022,-0.56734,3.7825,1.257,-3.03854,-0.329111,5.0022,-0.56734,0.0133485,2.73706,0.0049
-0.14999,34937.959,3.7801,1.2645,0.0,0.0,5.0305,-0.56698,,,,,5.0305,-0.566956,0.0139303,2.73706,0.0049
-0.14999,35117.96,3.7774,1.272,,,5.0589,-0.56657,,,,,5.0589,-0.566589,0.0124792,2.76387,0.0049
-0.15001,35297.96,3.7751,1.2795,0.0,0.0,5.0872,-0.5663,,,,,5.0872,-0.566227,0.0132741,2.76387,0.0049
-0.14999,35477.959,3.7724,1.287,,,5.1155,-0.56582,,,,,5.1155,-0.565858,0.0134963,2.77681,0.0049
-0.15,35657.96,3.7701,1.2945,0.0,0.0,5.1438,-0.56552,3.7701,1.2945,-3.04878,-0.328,5.1438,-0.565473,0.0124396,2.77681,0.0049
-0.14999,35837.96,3.7675,1.302,,,5.172,-0.56509,,,,,5.172,-0.565109,0.01396,2.81223,0.0049
-0.14999,36017.959,3.765,1.3095,0.0,0.0,5.2002,-0.56471,,,,,5.2002,-0.564721,0.0125185,2.81223,0.0049
-0.14999,36197.958,3.7625,1.317,,,5.2285,-0.56434,,,,,5.2285,-0.564346,0.0126891,2.8573,0.0049
-0.14999,36377.959,3.76,1.3245,0.0,,5.2567,-0.56396,,,,,5.2567,-0.563997,0.0129544,2.8573,0.0049
-0.14999,36557.959,3.7575,1.332,,0.0,5.2848,-0.56359,,,,,5.2848,-0.563602,0.0144654,2.89272,0.0049
-0.14998,36737.96,3.7551,1.3395,0.0,,5.313,-0.56319,,,,,5.313,-0.563221,0.0132222,2.89272,0.0049
-0.14999,36917.959,3.7528,1.347,,0.0,5.3412,-0.56288,,,,,5.3412,-0.562855,0.0127701,2.90566,0.0049
-0.14999,37097.96,3.7501,1.3545,0.0,,5.3693,-0.56248,3.7501,1.3545,-3.04878,-0.328,5.3693,-0.562487,0.0138328,2.90566,0.0049
-0.14998,37277.959,3.7477,1.362,,0.0,5.3974,-0.56208,,,,,5.3974,-0.562119,0.0124633,2.93247,0.0049
-0.14999,37457.959,3.7452,1.3695,0.0,,5.4255,-0.56174,,,,,5.4255,-0.561756,0.0140645,2.93247,0.0049
-0.14999,37637.959,3.7425,1.377,,0.0,5.4535,-0.56134,,,,,5.4535,-0.561362,0.0147373,2.95501,0.0049
-0.14999,37817.96,3.7402,1.3845,0.0,,5.4816,-0.56099,,,,,5.4816,-0.560977,0.013494,2.95501,0.0049
-0.15,37997.959,3.7374,1.392,,0.0,5.5096,-0.56061,,,,,5.5096,-0.560602,0.0148336,2.97223,0.0049
-0.14998,38177.959,3.735,1.3995,0.0,,5.5376,-0.56018,,,,,5.5376,-0.560194,0.0139479,2.97223,0.0049
-0.14999,38357.959,3.7324,1.407,,0.0,5.5656,-0.55982,,,,,5.5656,-0.559815,0.0133843,2.99476,0.0049
-0.14999,38537.96,3.7297,1.4145,0.0,0.0,5.5936,-0.55942,3.7297,1.4145,-2.97675,-0.336222,5.5936,-0.559443,0.0140011,2.99476,0.0049
-0.14999,38717.959,3.7274,1.422,,,5.6216,-0.55907,,,,,5.6216,-0.55905,0.0137366,3.02158,0.0049
-0.14999,38897.959,3.7246,1.4295,0.0,0.0,5.6495,-0.55865,,,,,5.6495,-0.558682,0.0138306,3.03451,0.0049
-0.15,39077.959,3.7222,1.437,,,5.6774,-0.55833,3.7222,1.437,-2.94199,-0.34,5.6774,-0.558305,0.0137905,3.03451,0.0049
-0.14999,39257.96,3.7197,1.4445,0.0,0.0,5.7053,-0.55792,,,,,5.7053,-0.5579,0.0142091,3.05272,0.0049
-0.14999,39437.959,3.7169,1.452,,,5.7332,-0.5575,,,,,5.7332,-0.557543,0.0126964,3.05272,0.0049
-0.15,39617.959,3.7146,1.4595,0.0,0.0,5.761,-0.55719,,,,,5.761,-0.557176,0.0126893,3.04411,0.0049
-0.14999,39797.959,3.7121,1.467,,,5.7889,-0.55678,,,,,5.7889,-0.556807,0.0145262,3.04411,0.0049
-0.14999,39977.96,3.7096,1.4745,0.0,0.0,5.8167,-0.5564,3.7096,1.4745,-3.09159,-0.323556,5.8167,-0.556407,0.0138131,3.00337,0.0049
-0.14999,40157.959,3.7071,1.482,,,5.8445,-0.55603,,,,,5.8445,-0.556037,0.013407,3.00337,0.0049
-0.15,40337.96,3.7045,1.4895,0.0,0.0,5.8723,-0.55568,,,,,5.8723,-0.555677,0.0127464,2.96362,0.0049
-0.14999,40517.959,3.7023,1.497,,,5.9001,-0.55531,3.7023,1.497,-3.07471,-0.325279,5.9001,-0.555303,0.0137657,2.96362,0.0049
-0.14999,40697.96,3.6997,1.5044,0.0,0.0,5.9278,-0.55492,,,,,5.9278,-0.554954,0.0125773,2.93247,0.0049
-0.14999,40877.96,3.6975,1.5119,,,5.9555,-0.55459,,,,,5.9555,-0.554578,0.0126218,2.93247,0.0049
-0.14999,41057.96,3.695,1.5194,0.0,,5.9832,-0.55421,,,,,5.9832,-0.554249,0.0127013,2.91427,0.0049
-0.15,41237.959,3.6928,1.5269,,0.0,6.0109,-0.55392,,,,,6.0109,-0.553907,0.011856,2.91427,0.0049
-0.14999,41417.959,3.6905,1.5344,0.0,,6.0386,-0.55354,,,,,6.0386,-0.553553,0.013288,2.91427,0.0049
-0.14999,41597.959,3.6881,1.5419,,0.0,6.0663,-0.55318,,,,,6.0663,-0.553203,0.0128585,2.93247,0.0049
-0.14999,41777.96,3.686,1.5494,0.0,3.2843,6.0939,-0.55286,3.686,1.5494,-3.33452,-0.3,6.0939,-0.552847,0.0122884,2.93247,0.0049
-0.14999,41957.959,3.6837,1.5569,,,6.1215,-0.55252,,,,,6.1215,-0.55253,0.0119052,2.95501,0.0049
-0.15,42137.959,3.6814,1.5644,0.30165,3.4082,6.1492,-0.55221,,,,,6.1492,-0.552213,0.0116829,2.95501,0.0049
-0.15,42317.959,3.6795,1.5719,,,6.1768,-0.55193,,,,,6.1768,-0.551871,0.0121864,2.96362,0.0049
-0.14999,42497.959,3.6771,1.5794,0.0,0.0,6.2043,-0.55153,,,,,6.2043,-0.551561,0.0111065,2.96362,0.0049
-0.14999,42677.959,3.6752,1.5869,,0.0,6.2319,-0.55124,,,,,6.2319,-0.55125,0.0111723,2.97223,0.0049
-0.14999,42857.959,3.673,1.5944,0.0,,6.2594,-0.55091,,,,,6.2594,-0.550926,0.0129142,2.97223,0.0049
-0.14999,43037.959,3.671,1.6019,,3.5906,6.287,-0.55061,,,,,6.287,-0.550597,0.0117254,2.97223,0.0049
-0.15,43217.959,3.6689,1.6094,0.0,,6.3145,-0.55034,,,,,6.3145,-0.550309,0.0104084,3.00337,0.0049
-0.15,43397.959,3.6669,1.6169,,0.0,6.342,-0.55004,,,,,6.342,-0.550007,0.0112147,3.00337,0.0049
-0.14998,43577.96,3.6649,1.6244,0.0,0.0,6.3695,-0.54966,,,,,6.3695,-0.549697,0.0115783,3.06133,0.0049
-0.14999,43757.96,3.6628,1.6319,,,6.3969,-0.54938,,,,,6.3969,-0.549416,0.00916213,3.06133,0.0049
-0.15,43937.959,3.6611,1.6394,,3.8308,6.4244,-0.54917,,,,,6.4244,-0.549128,0.0112636,3.06133,0.0049
-0.14999,44117.959,3.659,1.6469,0.0,,6.4518,-0.54881,,,,,6.4518,-0.548838,0.0110294,3.12361,0.0049
-0.14999,44297.96,3.6573,1.6544,,0.0,6.4793,-0.54856,,,,,6.4793,-0.54856,0.00881673,3.12361,0.0049
-0.14999,44477.959,3.6555,1.6619,0.0,,6.5067,-0.54829,,,,,6.5067,-0.548289,0.0109706,3.19018,0.0049
-0.14999,44657.959,3.6535,1.6694,,0.0,6.5341,-0.54799,,,,,6.5341,-0.547985,0.0105551,3.19018,0.0049
-0.14999,44837.959,3.6517,1.6769,0.25038,,6.5615,-0.54772,,,,,6.5615,-0.547691,0.00935942,3.19018,0.0049
-0.14998,45017.959,3.6498,1.6844,,0.0,6.5888,-0.5474,3.6498,1.6844,-4.27337,-0.234286,6.5888,-0.547457,0.0091383,3.26108,0.0049
-0.14999,45197.959,3.6481,1.6919,0.0,,6.6162,-0.54718,,,,,6.6162,-0.547183,0.0100835,3.26108,0.0049
-0.14999,45377.96,3.6463,1.6994,,4.1667,6.6435,-0.54691,,,,,6.6435,-0.546931,0.00961859,3.26108,0.0049
-0.15001,45557.958,3.6445,1.7069,0.0,,6.6709,-0.54671,,,,,6.6709,-0.546682,0.00907073,3.35878,0.0049
-0.15,45737.959,3.6429,1.7144,,0.0,6.6982,-0.54644,,,,,6.6982,-0.546391,0.0113259,3.35878,0.0049
-0.14999,45917.959,3.6409,1.7219,,4.2658,6.7255,-0.5461,,,,,6.7255,-0.546118,0.00930736,3.46182,0.0049
-0.14999,46097.96,3.6394,1.7294,0.0,,6.7528,-0.54587,,,,,6.7528,-0.545865,0.0083122,3.46182,0.0049
-0.14999,46277.958,3.6376,1.7369,,0.0,6.7801,-0.5456,,,,,6.7801,-0.545605,0.00998676,3.46182,0.0049
-0.14998,46457.959,3.6358,1.7444,0.0,,6.8073,-0.5453,,,,,6.8073,-0.545357,0.00956223,3.5456,0.0049
-0.14999,46637.959,3.6343,1.7519,,0.0,6.8346,-0.54511,3.6343,1.7519,-4.44318,-0.225714,6.8346,-0.54511,0.00967238,3.5456,0.0049
-0.15,46817.959,3.6324,1.7594,0.0,,6.8618,-0.54486,,,,,6.8618,-0.544836,0.0103435,3.5456,0.0049
-0.14999,46997.959,3.6309,1.7669,0.0,,6.889,-0.5446,,,,,6.889,-0.544579,0.00869368,3.62943,0.0049
-0.14999,47177.959,3.6292,1.7744,,0.0,6.9163,-0.54434,,,,,6.9163,-0.544356,0.00887481,3.62943,0.0049
-0.14998,47357.959,3.6275,1.7819,0.0,,6.9435,-0.54405,,,,,6.9435,-0.544097,0.00930998,3.62943,0.0049
-0.14999,47537.959,3.6259,1.7894,0.0,,6.9707,-0.54385,3.6259,1.7894,-4.49514,-0.22296,6.9707,-0.543831,0.00948357,3.76355,0.0049
-0.14999,47717.96,3.6241,1.7968,,0.0,6.9978,-0.54358,,,,,6.9978,-0.543597,0.00975485,3.76355,0.0049
-0.14999,47897.959,3.6226,1.8043,0.0,,7.025,-0.54335,,,,,7.025,-0.543344,0.00896766,3.76355,0.0049
-0.15,48077.959,3.6208,1.8118,0.0,,7.0521,-0.54312,,,,,7.0521,-0.543102,0.00935539,3.88813,0.0049
-0.14999,48257.959,3.6191,1.8193,,0.0,7.0793,-0.54283,,,,,7.0793,-0.542844,0.00961829,3.88813,0.0049
-0.14999,48437.959,3.6175,1.8268,0.0,,7.1064,-0.54259,,,,,7.1064,-0.542589,0.00924577,3.88813,0.0049
-0.14999,48617.959,3.6157,1.8343,,,7.1335,-0.54232,,,,,7.1335,-0.542342,0.00927909,4.00305,0.0049
-0.14999,48797.959,3.6142,1.8418,0.0,0.0,7.1606,-0.54209,3.6142,1.8418,-4.49308,-0.222857,7.1606,-0.542067,0.00991062,4.00305,0.0049
-0.14999,48977.96,3.6123,1.8493,,,7.1877,-0.54181,,,,,7.1877,-0.541814,0.00936709,4.00305,0.0049
-0.14998,49157.958,3.6108,1.8568,0.0,,7.2148,-0.54155,,,,,7.2148,-0.541567,0.00912458,4.11469,0.0049
-0.14999,49337.959,3.6089,1.8643,,0.0,7.2419,-0.5413,,,,,7.2419,-0.54131,0.00941386,4.11469,0.0049
-0.14999,49517.959,3.6074,1.8718,0.0,,7.2689,-0.54107,,,,,7.2689,-0.541052,0.0092994,4.11469,0.0049
-0.14999,49697.96,3.6055,1.8793,,,7.296,-0.54079,,,,,7.296,-0.540807,0.0102366,4.221,0.0049
-0.15,49877.959,3.6037,1.8868,0.0,0.0,7.323,-0.54056,,,,,7.323,-0.540543,0.00910386,4.221,0.0049
-0.15,50057.96,3.6021,1.8943,,,7.35,-0.54032,3.6021,1.8943,-4.24758,-0.237143,7.35,-0.540275,0.00956747,4.30583,0.0049
-0.15,50237.96,3.6001,1.9018,0.0,0.0,7.377,-0.54002,,,,,7.377,-0.540024,0.0103419,4.30583,0.0049
-0.14999,50417.959,3.5985,1.9093,,,7.404,-0.53974,,,,,7.404,-0.539741,0.00888371,4.30583,0.0049
-0.15,50597.96,3.5966,1.9168,0.0,0.0,7.431,-0.53949,,,,,7.431,-0.539468,0.0108984,4.37667,0.0049
-0.14998,50777.959,3.5947,1.9243,,0.0,7.4579,-0.53913,,,,,7.4579,-0.539181,0.0110904,4.37667,0.0049
-0.14999,50957.959,3.593,1.9318,0.0,,7.4849,-0.53891,,,,,7.4849,-0.538889,0.00995716,4.37667,0.0049
-0.15,51137.959,3.591,1.9393,,4.0543,7.5118,-0.53865,,,,,7.5118,-0.538636,0.0104908,4.42508,0.0049
-0.15,51317.959,3.5893,1.9468,0.0,,7.5387,-0.5384,,,,,7.5387,-0.538341,0.0108715,4.42508,0.0049
-0.14998,51497.96,3.5873,1.9543,,0.0,7.5656,-0.53802,,,,,7.5656,-0.538043,0.0110917,4.4797,0.0049
-0.14999,51677.96,3.5853,1.9618,0.0,,7.5925,-0.53776,,,,,7.5925,-0.537775,0.00956229,4.4797,0.0049
-0.15,51857.96,3.5835,1.9693,,0.0,7.6194,-0.53753,,,,,7.6194,-0.537491,0.0102014,4.4797,0.0049
-0.15,52037.959,3.5814,1.9768,0.25367,,7.6462,-0.53721,,,,,7.6462,-0.537214,0.0110748,4.4701,0.0049
-0.14999,52217.959,3.5795,1.9843,,0.0,7.6731,-0.53689,,,,,7.6731,-0.536904,0.0117543,4.4701,0.0049
-0.14999,52397.959,3.5776,1.9918,0.0,,7.6999,-0.5366,,,,,7.6999,-0.536579,0.0112818,4.43369,0.0049
-0.15,52577.959,3.5755,1.9993,,,7.7267,-0.53633,,,,,7.7267,-0.536298,0.0103559,4.43369,0.0049
-0.14999,52757.959,3.5736,2.0068,0.0,0.0,7.7535,-0.536,,,,,7.7535,-0.536007,0.0116904,4.43369,0.0049
-0.14999,52937.959,3.5714,2.0143,0.26546,,7.7803,-0.53567,,,,,7.7803,-0.535687,0.0124342,4.40881,0.0049
-0.14999,53117.96,3.5693,2.0218,,0.0,7.8071,-0.53536,,,,,7.8071,-0.535371,0.0106707,4.40881,0.0049
-0.15,53297.959,3.5674,2.0293,0.0,,7.8338,-0.53511,,,,,7.8338,-0.535086,0.0110801,4.31444,0.0049
-0.14999,53477.959,3.5652,2.0368,,,7.8606,-0.53474,,,,,7.8606,-0.534776,0.0123283,4.31444,0.0049
-0.14999,53657.96,3.5632,2.0443,0.0,0.0,7.8873,-0.53444,,,,,7.8873,-0.534437,0.0120479,4.31444,0.0049
-0.14999,53837.96,3.561,2.0518,,3.514,7.914,-0.53411,,,,,7.914,-0.534114,0.0125665,4.2114,0.0049
-0.14999,54017.959,3.5588,2.0593,0.0,,7.9407,-0.53378,,,,,7.9407,-0.533787,0.0116576,4.2114,0.0049
-0.14999,54197.959,3.5567,2.0668,,0.0,7.9674,-0.53347,,,,,7.9674,-0.533457,0.0128683,4.1415,0.0049
-0.14998,54377.959,3.5543,2.0743,0.0,0.0,7.994,-0.53307,3.5543,2.0743,-3.38203,-0.295682,7.994,-0.533138,0.0125913,4.1415,0.0049
-0.15,54557.96,3.5522,2.0817,,,8.0207,-0.53283,,,,,8.0207,-0.532791,0.0120515,4.06534,0.0049
-0.15,54737.959,3.5499,2.0892,0.0,,8.0473,-0.53249,3.5499,2.0892,-3.33437,-0.300032,8.0473,-0.532469,0.0139457,4.06534,0.0049
-0.14999,54917.959,3.5475,2.0967,,0.0,8.0739,-0.53209,,,,,8.0739,-0.53212,0.012605,3.98583,0.0049
-0.14999,55097.959,3.5454,2.1042,0.0,,8.1005,-0.53177,,,,,8.1005,-0.531758,0.0132584,3.98583,0.0049
-0.14999,55277.959,3.5429,2.1117,,0.0,8.127,-0.5314,,,,,8.127,-0.531433,0.0128003,3.8838,0.0049
-0.15,55457.96,3.5408,2.1192,,3.2366,8.1536,-0.53112,,,,,8.1536,-0.531083,0.0125046,3.8838,0.0049
-0.14999,55637.959,3.5383,2.1267,0.0,,8.1801,-0.53071,3.5383,2.1267,-3.16557,-0.316,8.1801,-0.530725,0.0147218,3.75828,0.0049
-0.14999,55817.959,3.5359,2.1342,,3.2055,8.2067,-0.53035,,,,,8.2067,-0.530366,0.0127284,3.75828,0.0049
-0.14999,55997.96,3.5337,2.1417,0.0,,8.2332,-0.53002,,,,,8.2332,-0.530011,0.0132555,3.75828,0.0049
-0.14999,56177.959,3.5311,2.1492,0.31336,3.1656,8.2596,-0.52963,,,,,8.2596,-0.52967,0.0136372,3.68306,0.0049
-0.14999,56357.959,3.529,2.1567,,,8.2861,-0.52931,,,,,8.2861,-0.529306,0.0128934,3.68306,0.0049
-0.14999,56537.959,3.5266,2.1642,0.0,0.0,8.3126,-0.52895,,,,,8.3126,-0.528965,0.0133301,3.63042,0.0049
-0.15,56717.959,3.524,2.1717,,0.0,8.339,-0.5286,,,,,8.339,-0.528602,0.0136576,3.63042,0.0049
-0.14999,56897.96,3.5218,2.1792,0.31877,,8.3654,-0.52823,3.5218,2.1792,-3.08736,-0.324,8.3654,-0.528237,0.0133781,3.56813,0.0049
-0.15,57077.959,3.5192,2.1867,,0.0,8.3918,-0.52788,,,,,8.3918,-0.52789,0.0138933,3.56813,0.0049
-0.15,57257.96,3.5168,2.1942,0.0,,8.4182,-0.52752,,,,,8.4182,-0.527513,0.0145515,3.47042,0.0049
-0.15,57437.959,3.5144,2.2017,,0.0,8.4445,-0.52716,3.5144,2.2017,-3.00649,-0.332667,8.4445,-0.527128,0.0149939,3.47042,0.0049
-0.15,57617.96,3.5118,2.2092,0.32761,,8.4709,-0.52677,,,,,8.4709,-0.526759,0.0142128,3.35878,0.0049
-0.15,57797.959,3.5095,2.2167,,0.0,8.4972,-0.52643,,,,,8.4972,-0.526367,0.0143913,3.35878,0.0049
-0.14999,57977.96,3.5067,2.2242,0.0,,8.5235,-0.52597,,,,,8.5235,-0.525989,0.0148098,3.27829,0.0049
-0.14999,58157.959,3.5042,2.2317,,0.0,8.5498,-0.52559,,,,,8.5498,-0.525616,0.0136407,3.27829,0.0049
-0.15,58337.96,3.5017,2.2392,0.34065,,8.576,-0.52526,3.5017,2.2392,-2.8795,-0.347333,8.576,-0.525231,0.0149759,3.25247,0.0049
-0.14999,58517.958,3.4989,2.2467,,0.0,8.6023,-0.5248,,,,,8.6023,-0.524824,0.0164602,3.23953,0.0049
-0.14999,58697.959,3.4962,2.2542,0.0,2.8311,8.6285,-0.5244,,,,,8.6285,-0.524408,0.0150604,3.23953,0.0049
-0.14998,58877.959,3.4936,2.2617,,0.0,8.6547,-0.52397,3.4936,2.2617,-2.6704,-0.374667,8.6547,-0.524011,0.0149398,3.19451,0.0049
-0.15,59057.959,3.4908,2.2692,,2.7398,8.6809,-0.52362,,,,,8.6809,-0.523622,0.0160317,3.19451,0.0049
-0.15,59237.96,3.4881,2.2767,0.0,,8.7071,-0.52322,,,,,8.7071,-0.523182,0.0165943,3.15043,0.0049
-0.14999,59417.959,3.4851,2.2842,,,8.7332,-0.52273,,,,,8.7332,-0.522766,0.0165153,3.15043,0.0049
-0.14999,59597.959,3.4825,2.2917,0.0,0.0,8.7593,-0.52234,3.4825,2.2917,-2.70337,-0.370667,8.7593,-0.522332,0.016526,3.09247,0.0049
-0.14999,59777.959,3.4795,2.2992,0.0,,8.7854,-0.52189,,,,,8.7854,-0.521897,0.016877,3.04312,0.0049
-0.15,59957.959,3.4765,2.3067,,0.0,8.8115,-0.52148,,,,,8.8115,-0.521472,0.0164684,3.04312,0.0049
-0.14999,60137.96,3.4737,2.3142,0.0,0.0,8.8375,-0.52102,3.4737,2.3142,-2.46989,-0.405,8.8375,-0.521024,0.0174179,3.02158,0.0049
-0.14999,60317.959,3.4707,2.3217,,2.56,8.8636,-0.52057,,,,,8.8636,-0.520575,0.0180048,3.02158,0.0049
-0.14999,60497.96,3.4678,2.3292,0.0,,8.8896,-0.52014,,,,,8.8896,-0.520113,0.0169331,2.98615,0.0049
-0.15,60677.959,3.4647,2.3367,,,8.9156,-0.51971,,,,,8.9156,-0.519675,0.0169108,2.92387,0.0049
-0.14999,60857.96,3.4617,2.3442,0.40127,0.0,8.9415,-0.51922,3.4617,2.3442,-2.50313,-0.4,8.9415,-0.519231,0.0175667,2.92387,0.0049
-0.14999,61037.959,3.4586,2.3517,,0.0,8.9675,-0.51876,,,,,8.9675,-0.518762,0.017806,2.84337,0.0049
-0.14999,61217.959,3.4554,2.3592,0.0,2.4329,8.9934,-0.51828,,,,,8.9934,-0.518297,0.0186087,2.84337,0.0049
-0.14998,61397.959,3.4525,2.3667,,,9.0193,-0.51781,,,,,9.0193,-0.517823,0.0181954,2.78541,0.0049
-0.14999,61577.959,3.4494,2.3741,0.0,,9.0452,-0.51738,,,,,9.0452,-0.517357,0.0181381,2.75526,0.0049
-0.14999,61757.96,3.4462,2.3816,,2.4324,9.071,-0.5169,3.4462,2.3816,-2.49124,-0.402131,9.071,-0.516906,0.0176601,2.75526,0.0049
-0.15,61937.959,3.4433,2.3891,0.0,,9.0968,-0.5165,,,,,9.0968,-0.516458,0.0167005,2.6887,0.0049
-0.15,62117.96,3.4402,2.3966,,,9.1226,-0.51603,,,,,9.1226,-0.51602,0.0172657,2.59427,0.0049
-0.14999,62297.96,3.4374,2.4041,0.0,,9.1484,-0.51558,,,,,9.1484,-0.515601,0.0153345,2.59427,0.0049
-0.15,62477.959,3.4349,2.4116,,,9.1742,-0.51524,,,,,9.1742,-0.515197,0.0152477,2.52771,0.0049
-0.14999,62657.959,3.4322,2.4191,0.0,0.0,9.1999,-0.5148,,,,,9.1999,-0.514814,0.0144658,2.52771,0.0049
-0.14999,62837.959,3.4299,2.4266,0.0,,9.2257,-0.51445,3.4299,2.4266,-3.1737,-0.316,9.2257,-0.51445,0.0133546,2.50616,0.0049
-0.15,63017.96,3.4275,2.4341,,0.0,9.2514,-0.51413,,,,,9.2514,-0.514119,0.0132199,2.50616,0.0049
-0.14999,63197.96,3.4254,2.4416,0.0,,9.277,-0.51378,,,,,9.277,-0.513775,0.0127332,2.47935,0.0049
-0.15001,63377.959,3.423,2.4491,,0.0,9.3027,-0.51348,,,,,9.3027,-0.513462,0.0131,2.47935,0.0049
-0.15,63557.96,3.4209,2.4566,,3.4695,9.3284,-0.51314,,,,,9.3284,-0.513127,0.0126769,2.47935,0.0049
-0.14999,63737.959,3.419,2.4641,0.0,,9.354,-0.51282,,,,,9.354,-0.512802,0.0124176,2.45681,0.0049
-0.15,63917.96,3.4167,2.4716,,0.0,9.3796,-0.51251,,,,,9.3796,-0.512499,0.0117811,2.45681,0.0049
-0.14999,64097.959,3.4147,2.4791,0.0,0.0,9.4053,-0.51217,,,,,9.4053,-0.512175,0.0123254,2.44821,0.0049
-0.14999,64277.96,3.4125,2.4866,,,9.4309,-0.51184,,,,,9.4309,-0.51186,0.0122078,2.44821,0.0049
-0.14999,64457.959,3.4104,2.4941,0.0,,9.4564,-0.51153,3.4104,2.4941,-3.49951,-0.286061,9.4564,-0.511534,0.0121164,2.45681,0.0049
-0.14998,64637.96,3.4084,2.5016,,0.0,9.482,-0.51119,,,,,9.482,-0.511216,0.0133087,2.45681,0.0049
-0.14999,64817.96,3.406,2.5091,,3.4637,9.5075,-0.51087,3.406,2.5091,-3.39241,-0.294788,9.5075,-0.510882,0.0135376,2.49656,0.0049
-0.14999,64997.96,3.4039,2.5166,0.0,,9.5331,-0.51055,,,,,9.5331,-0.510538,0.0129823,2.49656,0.0049
-0.15,65177.959,3.4016,2.5241,0.29321,0.0,9.5586,-0.51024,,,,,9.5586,-0.510211,0.0134389,2.49656,0.0049
-0.14999,65357.96,3.3991,2.5316,,0.0,9.5841,-0.50983,,,,,9.5841,-0.509861,0.0140258,2.60288,0.0049
-0.14998,65537.959,3.3969,2.5391,0.0,,9.6096,-0.50947,,,,,9.6096,-0.50949,0.0146452,2.60288,0.0049
-0.14999,65717.959,3.3943,2.5466,,0.0,9.635,-0.50911,3.3943,2.5466,-2.9616,-0.34,9.635,-0.509129,0.014577,2.79402,0.0049
-0.15,65897.959,3.3918,2.5541,0.32828,,9.6605,-0.50877,,,,,9.6605,-0.508747,0.0156308,2.79402,0.0049
-0.15,66077.959,3.389,2.5616,,0.0,9.6859,-0.50835,,,,,9.6859,-0.508334,0.0175341,3.05272,0.0049
-0.14999,66257.959,3.3861,2.5691,0.0,2.7005,9.7113,-0.50788,3.3861,2.5691,-2.63523,-0.38,9.7113,-0.507903,0.0165745,3.29321,0.0049
-0.15,66437.959,3.3833,2.5766,,,9.7367,-0.5075,,,,,9.7367,-0.507468,0.0178978,3.29321,0.0049
-0.15,66617.959,3.3799,2.5841,,,9.762,-0.50699,,,,,9.762,-0.506988,0.0195213,3.45321,0.0049
-0.15,66797.959,3.3766,2.5916,0.0,0.0,9.7873,-0.50649,,,,,9.7873,-0.506475,0.0200316,3.51977,0.0049
-0.14999,66977.96,3.3732,2.5991,,0.0,9.8126,-0.50595,,,,,9.8126,-0.505952,0.0220163,3.51977,0.0049
-0.14999,67157.959,3.3692,2.6066,,,9.8379,-0.50535,,,,,9.8379,-0.505376,0.0227287,3.49296,0.0049
-0.15001,67337.959,3.3652,2.6141,0.0,1.8459,9.8632,-0.50481,,,,,9.8632,-0.504764,0.025646,3.39953,0.0049
-0.14999,67517.959,3.3606,2.6216,0.55507,1.7014,9.8884,-0.50406,,,,,9.8884,-0.504098,0.0283827,3.24386,0.0049
-0.15,67697.96,3.3557,2.6291,,1.5334,9.9136,-0.50336,,,,,9.9136,-0.503318,0.0307988,3.06133,0.0049
-0.14999,67877.96,3.3502,2.6366,0.67214,1.4074,9.9387,-0.5025,3.3502,2.6366,-1.35135,-0.74,9.9387,-0.502526,0.0332431,2.86591,0.0049
-0.14999,68057.959,3.3444,2.6441,,1.3,9.9638,-0.50163,,,,,9.9638,-0.501657,0.0357477,2.66616,0.0049
-0.15,68237.96,3.3381,2.6516,,,9.9888,-0.50072,3.3381,2.6516,-1.13071,-0.89,9.9888,-0.500681,0.0405898,2.44821,0.0049
-0.15,68417.959,3.331,2.6591,0.9008,1.0633,10.014,-0.49965,3.331,2.6591,-1.04167,-0.96,10.014,-0.499651,0.0448718,2.0305,0.0049
-0.14999,68597.959,3.3236,2.6666,,,10.039,-0.49851,,,,,10.039,-0.49851,0.0458762,1.84369,0.0049
-0.15,68777.959,3.3153,2.6741,0.0,0.90037,10.064,-0.4973,3.3153,2.6741,-0.910262,-1.1,10.064,-0.497294,0.0507971,1.51509,0.0049
-0.15,68957.96,3.3064,2.6816,,,10.089,-0.49596,3.3064,2.6816,-0.794051,-1.26,10.089,-0.495955,0.053861,1.29714,0.0049
-0.14999,69137.96,3.297,2.6891,,,10.113,-0.49452,3.297,2.6891,-0.755749,-1.32667,10.113,-0.494514,0.0585403,1.15968,0.0049
-0.14999,69317.96,3.2866,2.6965,,,10.138,-0.49296,3.2866,2.6965,-0.690018,-1.44935,10.138,-0.493,0.0660839,0.99968,0.0049
-0.14999,69497.96,3.2757,2.704,,0.66013,10.163,-0.49132,3.2757,2.704,-0.651325,-1.54,10.163,-0.491318,0.0689007,0.879434,0.0049
-0.14999,69677.959,3.2634,2.7115,0.0,0.61231,10.187,-0.48948,3.2634,2.7115,-0.588398,-1.7,10.187,-0.489503,0.0791259,0.853612,0.0049
-0.14999,69857.96,3.2504,2.719,1.7602,0.55311,10.211,-0.48753,3.2504,2.719,-0.538754,-1.86,10.211,-0.487519,0.0810482,0.750581,0.0049
-0.14999,70037.96,3.2358,2.7265,,0.50557,10.236,-0.48534,3.2358,2.7265,-0.505154,-1.98,10.236,-0.485369,0.0945076,0.675409,0.0049
-0.14999,70217.96,3.2203,2.734,2.1003,0.47263,10.26,-0.48301,3.2203,2.734,-0.454846,-2.2,10.26,-0.48301,0.101753,0.586307,0.0049
-0.15,70397.96,3.2034,2.7415,,0.43413,10.284,-0.48051,3.2034,2.7415,-0.435375,-2.3,10.284,-0.480464,0.11009,0.537948,0.0049
-0.15,70577.959,3.185,2.749,,0.39971,10.308,-0.47775,3.185,2.749,-0.39414,-2.54,10.308,-0.477733,0.118751,0.475661,0.0049
-0.14999,70757.959,3.1653,2.7565,2.6186,0.3683,10.332,-0.47476,3.1653,2.7565,-0.360048,-2.78,10.332,-0.474746,0.128086,0.444517,0.0049
-0.14999,70937.959,3.1437,2.764,,0.34342,10.355,-0.47152,3.1437,2.764,-0.342466,-2.92,10.355,-0.47155,0.149554,0.386559,0.0049
-0.14999,71117.96,3.1205,2.7715,3.1434,0.31032,10.379,-0.46804,3.1205,2.7715,-0.306772,-3.26,10.379,-0.468067,0.15124,0.377951,0.0049
-0.15,71297.96,3.0952,2.779,3.3938,0.28491,10.402,-0.46428,3.0952,2.779,-0.285882,-3.5,10.402,-0.464242,0.178886,0.328601,0.0049
-0.14999,71477.959,3.0672,2.7865,3.7733,0.25905,10.425,-0.46005,3.0672,2.7865,-0.255155,-3.92,10.425,-0.460066,0.196516,0.307057,0.0049
-0.14999,71657.959,3.0365,2.794,4.1998,0.23534,10.448,-0.45544,3.0365,2.794,-0.231839,-4.32,10.448,-0.455432,0.21783,0.266313,0.0049
-0.14999,71837.96,3.0018,2.8015,4.6544,0.20669,10.471,-0.45024,3.0018,2.8015,-0.204252,-4.9,10.471,-0.45026,0.247662,0.257706,0.0049
-0.14999,72017.959,2.9626,2.809,5.3598,0.18016,10.493,-0.44436,2.9626,2.809,-0.177036,-5.66,10.493,-0.444379,0.281411,0.195418,0.0049
-0.15,72197.96,2.9167,2.8165,6.4046,0.15166,10.515,-0.43751,2.9167,2.8165,-0.150478,-6.66,10.515,-0.437569,0.330829,0.168604,0.0049
-0.15,72377.959,2.86,2.824,8.4631,0.11496,10.537,-0.429,2.86,2.824,-0.113512,-8.88,10.537,-0.429078,0.497363,0.13746,0.0049
-0.15,72557.96,2.7734,2.8315,14.484,0.065907,10.558,-0.41601,2.7734,2.8315,-0.0661375,-15.38,10.558,-0.415502,0.809933,0.0622875,0.0049
-0.14999,72737.959,2.6376,2.839,19.273,0.052784,10.578,-0.39561,2.6376,2.839,-0.0523571,-19.1,10.578,-0.395737,1.09834,0.0622875,0.0049
-0.15,72914.331,2.5,2.8463,17.669,0.057062,10.597,-0.375,,,,,10.597,-0.374774,1.13159,,0.0049
-0.15,72914.339,2.5,2.8463,17.669,0.057062,10.597,-0.375,2.5,2.8463,-0.0541176,-18.2858,,,,,0.0049