File: Data/processed_data/Cycle 745_charge.csv
Current(A),Test_Time(s),Voltage(V),Charge_Capacity(Ah),dV/dQ(V/Ah),dQ/dV(Ah/V),Charge_Energy(Wh),Power(W),Downsampled Voltage (V),Downsampled Capacity (Ah),dQ/dV from downsampled Voltage (Ah/V),dV/dQ from downsampled Cpacity (V/Ah),Downsampled Energy (Wh),Downsampled Power (W),dP/dE from downsampled Energy (W/Wh),dQ/dV from LEAN (Ah/V),Delta_V (V) in LEAN
0.14999,1156.42,4.2002,0.03924,0.0,0.0,0.16548,0.62999,,,,,0.16548,0.607772,2.52274,1.07385,0.0056
0.14998,76509.948,3.1527,0.03999,,0.2639,0.12226,0.47284,3.1527,0.03999,0.280899,3.62,,,,,0.0056
0.14999,76629.948,3.1702,0.04499,3.5961,0.28738,0.13806,0.4755,3.1702,0.04499,0.292418,3.42,0.13806,0.472324,-3.85212,3.2623,0.0056
0.14998,76749.949,3.1869,0.04999,3.3364,0.30478,0.15395,0.47797,3.1869,0.04999,0.31013,3.22624,0.15395,0.463684,1.34521,3.33842,0.0056
0.14998,76869.948,3.2024,0.05498,,0.32408,0.16992,0.4803,3.2024,0.05498,0.333452,3.0,0.16992,0.480305,0.142525,3.3625,0.0056
0.14998,76989.948,3.2172,0.05998,2.9605,0.34017,0.18596,0.48252,3.2172,0.05998,0.347758,2.88,0.18596,0.482514,0.133202,3.37858,0.0056
0.14998,77109.947,3.231,0.06498,,0.36051,0.20207,0.48459,3.231,0.06498,0.373301,2.68,0.20207,0.484597,0.125849,3.32049,0.0056
0.14999,77229.948,3.2441,0.06998,2.6353,0.38362,0.21826,0.48658,3.2441,0.06998,0.384615,2.6,0.21826,0.486577,0.118501,3.37059,0.0056
0.14999,77349.948,3.2568,0.07498,2.5451,0.39573,0.2345,0.48849,3.2568,0.07498,0.413731,2.42,0.2345,0.488452,0.112038,3.42069,0.0056
0.14998,77469.95,3.2686,0.07998,2.4329,0.42349,0.25081,0.49022,3.2686,0.07998,0.426543,2.34463,0.25081,0.490238,0.108195,3.43677,0.0056
0.14998,77589.949,3.2802,0.08497,,0.44252,0.26718,0.49196,3.2802,0.08497,0.443102,2.26,0.26718,0.491967,0.102788,3.47888,0.0056
0.14999,77709.948,3.291,0.08997,,0.45829,0.2836,0.49362,3.291,0.08997,0.476277,2.1,0.2836,0.493612,0.0967141,3.44486,0.0056
0.14998,77829.95,3.3013,0.09497,,0.47952,0.30008,0.49513,3.3013,0.09497,0.481125,2.08,0.30008,0.495152,0.091258,3.48697,0.0056
0.14997,77949.95,3.3115,0.09997,,0.49728,0.3166,0.49663,3.3115,0.09997,0.515573,1.94,0.3166,0.496633,0.0887711,3.48697,0.0056
0.14998,78069.948,3.321,0.10497,,0.51692,0.33318,0.49808,3.321,0.10497,0.537759,1.86,0.33318,0.498085,0.0852013,3.54516,0.0056
0.14999,78189.95,3.3303,0.10996,,0.54438,0.3498,0.49951,3.3303,0.10996,0.549617,1.8239,0.3498,0.499463,0.0811626,3.57109,0.0056
0.14998,78309.949,3.3389,0.11496,,0.56913,0.36647,0.50077,3.3389,0.11496,0.588398,1.7,0.36647,0.500792,0.0780271,3.53522,0.0056
0.14999,78429.948,3.3474,0.11996,,0.58647,0.38318,0.50208,3.3474,0.11996,0.602585,1.66,0.38318,0.502044,0.0731709,3.62928,0.0056
0.14998,78549.948,3.3554,0.12496,1.6354,0.62281,0.39993,0.50324,3.3554,0.12496,0.658807,1.52,0.39993,0.50325,0.0687757,3.64351,0.0056
0.14999,78669.949,3.3628,0.12996,1.5147,,0.41672,0.50439,3.3628,0.12996,0.695517,1.44,0.41672,0.504365,0.0651907,3.68562,0.0056
0.14998,78789.949,3.3698,0.13496,,0.71601,0.43355,0.5054,3.3698,0.13496,0.761451,1.32233,0.43355,0.505419,0.0584004,3.79391,0.0056
0.14999,78909.948,3.3758,0.13995,,0.7912,0.4504,0.50634,,,,,0.4504,0.506325,0.0497995,3.91029,0.0056
0.14998,79029.95,3.381,0.14495,,,0.46729,0.50708,3.381,0.14495,1.03062,0.973333,0.46729,0.5071,0.041292,4.05075,0.0056
0.14998,79149.949,3.3856,0.14995,,,0.4842,0.50777,3.3856,0.14995,1.25633,0.82,0.4842,0.507758,0.0373059,4.25749,0.0056
0.14998,79269.95,3.3892,0.15495,,1.2504,0.50113,0.50831,3.3892,0.15495,1.46329,0.688,0.50113,0.508338,0.0311144,4.59045,0.0056
0.14998,79389.949,3.3925,0.15995,,0.0,0.51808,0.50881,,,,,0.51808,0.508813,0.0256278,4.59045,0.0056
0.14998,79509.948,3.3952,0.16495,,,0.53505,0.50921,,,,,0.53505,0.509217,0.0224787,4.99769,0.0056
0.14998,79629.949,3.3977,0.16994,,,0.55202,0.50959,3.3977,0.16994,2.16366,0.466588,0.55202,0.509597,0.021928,4.99769,0.0056
0.14999,79749.95,3.4001,0.17494,,,0.56901,0.50998,,,,,0.56901,0.509964,0.0205577,5.39694,0.0056
0.14999,79869.948,3.402,0.17994,,,0.58601,0.51027,3.402,0.17994,2.45066,0.41,0.58601,0.510274,0.0170716,5.39694,0.0056
0.14997,79989.948,3.4041,0.18494,,2.3716,0.60302,0.51051,,,,,0.60302,0.510554,0.0167819,5.77006,0.0056
0.14999,80109.949,3.4059,0.18994,,0.0,0.62004,0.51085,3.4059,0.18994,2.6931,0.373229,0.62004,0.510843,0.016469,5.77006,0.0056
0.14999,80229.95,3.4078,0.19493,,0.0,0.63707,0.51114,,,,,0.63707,0.511127,0.0160236,5.77006,0.0056
0.14999,80349.948,3.4094,0.19993,,,0.6541,0.51138,,,,,0.6541,0.511388,0.0151635,5.77006,0.0056
0.14999,80469.948,3.4112,0.20493,,,0.67115,0.51165,,,,,0.67115,0.511636,0.0139904,6.08519,0.0056
0.14998,80589.95,3.4128,0.20993,,,0.6882,0.51185,,,,,0.6882,0.511869,0.0134191,6.08519,0.0056
0.14998,80709.95,3.4143,0.21493,,,0.70527,0.51208,3.4143,0.21493,3.208,0.312119,0.70527,0.512104,0.0142472,6.08519,0.0056
0.14998,80829.949,3.416,0.21993,,,0.72234,0.51233,,,,,0.72234,0.512341,0.0131537,6.41806,0.0056
0.14998,80949.948,3.4173,0.22492,,,0.73941,0.51253,,,,,0.73941,0.512562,0.013025,6.41806,0.0056
0.14998,81069.949,3.419,0.22992,,3.2769,0.7565,0.51278,,,,,0.7565,0.512781,0.0123024,6.41806,0.0056
0.14999,81189.948,3.4202,0.23492,,0.0,0.77359,0.513,,,,,0.77359,0.512994,0.0129085,6.41806,0.0056
0.14998,81309.948,3.4217,0.23992,,0.0,0.79069,0.51319,3.4217,0.23992,3.47852,0.287481,0.79069,0.5132,0.011701,6.64283,0.0056
0.14998,81429.949,3.4233,0.24492,0.29775,0.0,0.8078,0.51343,,,,,0.8078,0.513413,0.0130098,6.64283,0.0056
0.14999,81549.949,3.4244,0.24992,0.0,,0.82491,0.51363,,,,,0.82491,0.513627,0.0117455,6.64283,0.0056
0.14998,81669.948,3.426,0.25491,0.0,,0.84203,0.51383,3.426,0.25491,3.67488,0.273433,0.84203,0.513822,0.0113409,6.64283,0.0056
0.14998,81789.948,3.4272,0.25991,0.0,,0.85916,0.51401,,,,,0.85916,0.514012,0.0115981,6.80736,0.0056
0.14998,81909.948,3.4286,0.26491,0.0,3.7105,0.87629,0.51422,,,,,0.87629,0.51422,0.0117166,6.80736,0.0056
0.14999,82029.95,3.4299,0.26991,0.0,0.0,0.89343,0.51445,3.4299,0.26991,3.9067,0.256109,0.89343,0.514419,0.0116029,6.80736,0.0056
0.14998,82149.949,3.4311,0.27491,0.0,0.0,0.91058,0.5146,,,,,0.91058,0.514618,0.0111286,6.80736,0.0056
0.14998,82269.947,3.4326,0.27991,0.0,0.0,0.92773,0.51482,,,,,0.92773,0.514805,0.0116903,6.88358,0.0056
0.14998,82389.949,3.4336,0.2849,,3.8455,0.94489,0.51497,,,,,0.94489,0.515003,0.0110546,6.88358,0.0056
0.14998,82509.949,3.4351,0.2899,,0.0,0.96206,0.5152,,,,,0.96206,0.515196,0.0111994,6.88358,0.0056
0.14999,82629.949,3.4362,0.2949,,0.0,0.97923,0.5154,,,,,0.97923,0.515387,0.0106814,6.88358,0.0056
0.14998,82749.949,3.4375,0.2999,,0.0,0.99641,0.51556,,,,,0.99641,0.51557,0.0111929,6.88358,0.0056
0.14998,82869.949,3.439,0.3049,,3.9094,1.0136,0.51578,,,,,1.0136,0.515767,0.0118494,6.8674,0.0056
0.14999,82989.948,3.44,0.3099,,0.0,1.0308,0.51597,,,,,1.0308,0.515971,0.0114517,6.8674,0.0056
0.14999,83109.949,3.4413,0.31489,,0.0,1.048,0.51616,,,,,1.048,0.516161,0.0104576,6.8674,0.0056
0.14998,83229.948,3.4428,0.31989,,0.0,1.0652,0.51635,,,,,1.0652,0.516343,0.010966,6.8674,0.0056
0.14998,83349.948,3.4439,0.32489,,3.8723,1.0824,0.51652,,,,,1.0824,0.516544,0.0121464,6.69107,0.0056
0.14998,83469.949,3.4454,0.32989,,0.0,1.0996,0.51674,,,,,1.0996,0.516751,0.0119274,6.69107,0.0056
0.14998,83589.949,3.4466,0.33489,,0.0,1.1168,0.51692,,,,,1.1168,0.516943,0.0108637,6.69107,0.0056
0.14998,83709.95,3.4479,0.33989,,0.0,1.1341,0.51712,,,,,1.1341,0.517142,0.0120105,6.69107,0.0056
0.14999,83829.95,3.4494,0.34488,,,1.1513,0.51738,,,,,1.1513,0.517351,0.0120432,6.5165,0.0056
0.14999,83949.948,3.4506,0.34988,,,1.1685,0.51756,,,,,1.1685,0.517559,0.0121238,6.5165,0.0056
0.14999,84069.948,3.4521,0.35488,,,1.1858,0.51778,,,,,1.1858,0.51776,0.0117311,6.5165,0.0056
0.14999,84189.949,3.4534,0.35988,0.268,3.665,1.2031,0.51798,,,,,1.2031,0.517967,0.0122656,6.5165,0.0056
0.14998,84309.948,3.4549,0.36488,0.0,0.0,1.2203,0.51817,,,,,1.2203,0.518172,0.0113166,6.35187,0.0056
0.14998,84429.948,3.4564,0.36987,0.0,0.0,1.2376,0.51839,,,,,1.2376,0.518377,0.0127882,6.35187,0.0056
0.14998,84549.949,3.4577,0.37487,0.0,0.0,1.2549,0.51859,3.4577,0.37487,3.30813,0.302315,1.2549,0.518611,0.0138779,6.35187,0.0056
0.14999,84669.949,3.4593,0.37987,0.0,,1.2722,0.51886,,,,,1.2722,0.518841,0.0127639,6.35187,0.0056
0.14998,84789.949,3.4608,0.38487,0.0,,1.2895,0.51905,,,,,1.2895,0.519063,0.0125722,6.13529,0.0056
0.14999,84909.948,3.4622,0.38987,0.0,,1.3068,0.5193,3.4622,0.38987,3.22172,0.311053,1.3068,0.519283,0.0134383,6.13529,0.0056
0.14998,85029.949,3.4639,0.39487,,3.2537,1.3241,0.51952,,,,,1.3241,0.519526,0.0140491,6.13529,0.0056
0.14998,85149.948,3.4655,0.39986,,0.0,1.3414,0.51976,,,,,1.3414,0.519753,0.0131487,6.13529,0.0056
0.14998,85269.95,3.4671,0.40486,,0.0,1.3587,0.52,,,,,1.3587,0.520004,0.0145669,5.91861,0.0056
0.14998,85389.949,3.4689,0.40986,,3.0773,1.376,0.52027,,,,,1.376,0.520253,0.0152157,5.91861,0.0056
0.14998,85509.949,3.4704,0.41486,,0.0,1.3934,0.52049,,,,,1.3934,0.520518,0.0151217,5.91861,0.0056
0.14999,85629.948,3.4723,0.41986,,0.0,1.4107,0.52081,,,,,1.4107,0.520795,0.0156847,5.74413,0.0056
0.14999,85749.949,3.4741,0.42486,,2.8801,1.4281,0.52108,3.4741,0.42486,2.72717,0.367774,1.4281,0.521056,0.0152411,5.74413,0.0056
0.14997,85869.949,3.4758,0.42985,,0.0,1.4455,0.52127,,,,,1.4455,0.521333,0.0165398,5.74413,0.0056
0.14999,85989.948,3.4779,0.43485,,0.0,1.4628,0.52165,3.4779,0.43485,2.66632,0.375193,1.4628,0.521613,0.0158645,5.66177,0.0056
0.14998,86109.95,3.4796,0.43985,,,1.4802,0.52187,,,,,1.4802,0.521898,0.0163855,5.66177,0.0056
0.14998,86229.949,3.4816,0.44485,,,1.4976,0.52217,3.4816,0.44485,2.63398,0.3802,1.4976,0.522185,0.0174354,5.66177,0.0056
0.14999,86349.948,3.4837,0.44985,0.38033,2.5654,1.515,0.52252,,,,,1.515,0.522507,0.0182291,5.5795,0.0056
0.14999,86469.948,3.4855,0.45484,0.0,0.0,1.5325,0.52279,3.4855,0.45484,2.50181,0.40019,1.5325,0.5228,0.0156426,5.5795,0.0056
0.14997,86589.95,3.4877,0.45984,0.0,0.0,1.5499,0.52305,,,,,1.5499,0.523075,0.0171966,5.5795,0.0056
0.14998,86709.948,3.4896,0.46484,0.0,,1.5673,0.52337,3.4896,0.46484,2.41034,0.415,1.5673,0.523385,0.0178733,5.4792,0.0056
0.14999,86829.95,3.4917,0.46984,0.0,,1.5848,0.52372,,,,,1.5848,0.523703,0.0179247,5.4792,0.0056
0.14998,86949.95,3.4938,0.47484,0.40267,2.4545,1.6022,0.524,3.4938,0.47484,2.37976,0.42021,1.6022,0.524003,0.0173243,5.38699,0.0056
0.14999,87069.948,3.4957,0.47984,0.0,0.0,1.6197,0.52432,,,,,1.6197,0.524314,0.0184903,5.38699,0.0056
0.14999,87189.949,3.498,0.48483,0.0,0.0,1.6372,0.52467,3.498,0.48483,2.40916,0.415213,1.6372,0.524635,0.0174046,5.38699,0.0056
0.14999,87309.949,3.4999,0.48983,0.0,,1.6547,0.52495,,,,,1.6547,0.52494,0.0176092,5.37091,0.0056
0.14998,87429.949,3.5021,0.49483,0.0,,1.6722,0.52524,3.5021,0.49483,2.46989,0.405,1.6722,0.525237,0.0172139,5.37091,0.0056
0.14998,87549.949,3.504,0.49983,,2.3978,1.6897,0.52553,,,,,1.6897,0.525553,0.0183983,5.37091,0.0056
0.14999,87669.948,3.5061,0.50483,,0.0,1.7072,0.52588,3.5061,0.50483,2.44077,0.410215,1.7072,0.525878,0.0183184,5.40493,0.0056
0.14998,87789.948,3.5084,0.50983,,0.0,1.7247,0.52619,,,,,1.7247,0.526192,0.0176973,5.40493,0.0056
0.14998,87909.95,3.5103,0.51482,,,1.7423,0.52647,3.5103,0.51482,2.3193,0.431604,1.7423,0.526497,0.0175407,5.40493,0.0056
0.14999,88029.948,3.5126,0.51982,,,1.7598,0.52685,,,,,1.7598,0.52681,0.017685,5.41302,0.0056
0.14999,88149.95,3.5145,0.52482,,,1.7774,0.52714,,,,,1.7774,0.527128,0.0182482,5.41302,0.0056
0.14999,88269.948,3.5166,0.52982,,,1.7949,0.52745,,,,,1.7949,0.527438,0.0181557,5.42101,0.0056
0.14999,88389.949,3.5188,0.53482,,2.3879,1.8125,0.52778,,,,,1.8125,0.527765,0.0181867,5.42101,0.0056
0.14999,88509.948,3.5208,0.53982,,0.0,1.8301,0.52808,,,,,1.8301,0.528071,0.0167232,5.42101,0.0056
0.14998,88629.947,3.5229,0.54481,,0.0,1.8477,0.52836,,,,,1.8477,0.52836,0.0163469,5.4291,0.0056
0.14998,88749.95,3.5249,0.54981,,,1.8653,0.52866,,,,,1.8653,0.528659,0.0176874,5.4291,0.0056
0.14998,88869.951,3.527,0.55481,,,1.883,0.52898,,,,,1.883,0.528976,0.0172326,5.4291,0.0056
0.14998,88989.948,3.529,0.55981,,2.4582,1.9006,0.52928,,,,,1.9006,0.529265,0.0167257,5.49529,0.0056
0.14997,89109.948,3.5309,0.56481,,0.0,1.9182,0.52953,,,,,1.9182,0.529567,0.0168885,5.49529,0.0056
0.14999,89229.949,3.533,0.56981,,0.0,1.9359,0.52991,,,,,1.9359,0.529855,0.0163666,5.5795,0.0056
0.14998,89349.949,3.5347,0.5748,,,1.9535,0.53013,,,,,1.9535,0.530155,0.0164281,5.5795,0.0056
0.14999,89469.949,3.5368,0.5798,,,1.9712,0.53048,,,,,1.9712,0.530433,0.0168491,5.5795,0.0056
0.14998,89589.948,3.5387,0.5848,,2.5663,1.9889,0.53073,,,,,1.9889,0.530739,0.0163666,5.64569,0.0056
0.14999,89709.948,3.5406,0.5898,,0.0,2.0066,0.53105,,,,,2.0066,0.531018,0.0158952,5.64569,0.0056
0.14998,89829.95,3.5427,0.5948,,0.0,2.0243,0.53133,,,,,2.0243,0.531314,0.016781,5.64569,0.0056
0.14998,89949.95,3.5445,0.5998,,,2.042,0.5316,,,,,2.042,0.531607,0.0168975,5.66986,0.0056
0.14998,90069.948,3.5464,0.60479,,,2.0597,0.53189,3.5464,0.60479,2.63657,0.379922,2.0597,0.5319,0.0158166,5.66986,0.0056
0.14998,90189.948,3.5484,0.60979,,,2.0775,0.53219,,,,,2.0775,0.532179,0.0151843,5.66986,0.0056
0.14998,90309.949,3.5501,0.61479,,,2.0952,0.53244,3.5501,0.61479,2.66761,0.375,2.0952,0.532462,0.016314,5.71996,0.0056
0.14998,90429.948,3.5521,0.61979,,,2.113,0.53274,,,,,2.113,0.53274,0.0158237,5.71996,0.0056
0.14997,90549.948,3.5539,0.62479,,2.6722,2.1307,0.53298,3.5539,0.62479,2.66625,0.375183,2.1307,0.533016,0.0150883,5.71996,0.0056
0.14998,90669.95,3.5557,0.62979,,0.0,2.1485,0.53328,,,,,2.1485,0.533279,0.0151588,5.77815,0.0056
0.14998,90789.949,3.5576,0.63478,,0.0,2.1663,0.53357,3.5576,0.63478,2.73509,0.365764,2.1663,0.533565,0.0158203,5.77815,0.0056
0.14999,90909.949,3.5593,0.63978,,2.7599,2.184,0.53386,,,,,2.184,0.533838,0.0152804,5.77815,0.0056
0.14998,91029.948,3.5612,0.64478,,0.0,2.2018,0.53411,,,,,2.2018,0.5341,0.0144268,5.85242,0.0056
0.14998,91149.948,3.5628,0.64978,,0.0,2.2196,0.53435,,,,,2.2196,0.534362,0.0153436,5.85242,0.0056
0.14998,91269.949,3.5646,0.65478,,,2.2375,0.53462,,,,,2.2375,0.534634,0.0148919,5.85242,0.0056
0.14998,91389.948,3.5664,0.65978,,,2.2553,0.53489,3.5664,0.65978,2.92443,0.341966,2.2553,0.534895,0.0141106,5.9768,0.0056
0.14998,91509.948,3.568,0.66477,,,2.2731,0.53513,,,,,2.2731,0.535145,0.0135512,5.9768,0.0056
0.14998,91629.95,3.5698,0.66977,,,2.2909,0.5354,3.5698,0.66977,3.02405,0.331305,2.2909,0.53539,0.0142749,5.9768,0.0056
0.14998,91749.949,3.5713,0.67477,,,2.3088,0.53562,,,,,2.3088,0.535634,0.0130186,5.9768,0.0056
0.14998,91869.948,3.5729,0.67977,0.33934,,2.3266,0.53586,,,,,2.3266,0.535872,0.0141255,6.1192,0.0056
0.14998,91989.948,3.5747,0.68477,0.0,,2.3445,0.53613,,,,,2.3445,0.536127,0.0138893,6.1192,0.0056
0.14998,92109.949,3.5762,0.68976,0.0,,2.3624,0.53636,,,,,2.3624,0.536373,0.0140174,6.1192,0.0056
0.14998,92229.948,3.5778,0.69476,0.0,,2.3803,0.5366,3.5778,0.69476,3.12375,0.320128,2.3803,0.53661,0.0126406,6.25157,0.0056
0.14998,92349.949,3.5796,0.69976,0.0,,2.3981,0.53687,,,,,2.3981,0.536849,0.0138023,6.25157,0.0056
0.14998,92469.949,3.581,0.70476,0.0,,2.416,0.53708,,,,,2.416,0.537089,0.0128343,6.25157,0.0056
0.14998,92589.947,3.5827,0.70976,0.0,,2.4339,0.53733,,,,,2.4339,0.53731,0.0123645,6.25157,0.0056
0.14998,92709.95,3.584,0.71476,,3.1875,2.4519,0.53753,,,,,2.4519,0.537545,0.0134935,6.34202,0.0056
0.14998,92829.949,3.5857,0.71975,,0.0,2.4698,0.53778,3.5857,0.71975,3.26328,0.306684,2.4698,0.537777,0.013016,6.34202,0.0056
0.14998,92949.948,3.5871,0.72475,,0.0,2.4877,0.53799,,,,,2.4877,0.53801,0.0125253,6.34202,0.0056
0.14999,93069.949,3.5885,0.72975,,3.3083,2.5056,0.53824,,,,,2.5056,0.538231,0.0120154,6.34202,0.0056
0.14998,93189.949,3.5902,0.73475,,0.0,2.5236,0.53846,3.5902,0.73475,3.40895,0.293578,2.5236,0.53845,0.0122677,6.50841,0.0056
0.14998,93309.949,3.5915,0.73975,,0.0,2.5415,0.53865,,,,,2.5415,0.538663,0.0119793,6.50841,0.0056
0.14998,93429.948,3.5931,0.74475,0.29774,0.0,2.5595,0.53889,,,,,2.5595,0.53888,0.011633,6.50841,0.0056
0.14998,93549.949,3.5944,0.74974,0.0,,2.5774,0.53909,,,,,2.5774,0.53909,0.0124992,6.67499,0.0056
0.14998,93669.949,3.5957,0.75474,0.0,,2.5954,0.53928,,,,,2.5954,0.539316,0.0119553,6.67499,0.0056
0.14999,93789.95,3.5973,0.75974,0.0,,2.6134,0.53956,,,,,2.6134,0.539512,0.010469,6.67499,0.0056
0.14997,93909.948,3.5985,0.76474,0.0,3.6145,2.6314,0.53967,,,,,2.6314,0.539714,0.0107985,6.67499,0.0056
0.14999,94029.948,3.6,0.76974,0.0,0.0,2.6494,0.53996,,,,,2.6494,0.539903,0.0123897,6.86555,0.0056
0.14998,94149.948,3.6011,0.77473,0.0,0.0,2.6673,0.54009,,,,,2.6673,0.540139,0.0121188,6.86555,0.0056
0.14999,94269.948,3.6027,0.77973,0.0,0.0,2.6854,0.54037,,,,,2.6854,0.540327,0.00947877,6.86555,0.0056
0.14998,94389.95,3.6039,0.78473,,3.7844,2.7034,0.54051,,,,,2.7034,0.540514,0.0103583,6.86555,0.0056
0.14998,94509.948,3.605,0.78973,,0.0,2.7214,0.54068,,,,,2.7214,0.540693,0.0102766,6.86555,0.0056
0.14998,94629.948,3.6064,0.79473,,0.0,2.7394,0.54089,,,,,2.7394,0.54089,0.0114887,7.04012,0.0056
0.14998,94749.95,3.6075,0.79973,,0.0,2.7574,0.54105,,,,,2.7574,0.541086,0.00994468,7.04012,0.0056
0.14998,94869.949,3.6089,0.80472,,4.0102,2.7755,0.54126,,,,,2.7755,0.541267,0.00972111,7.04012,0.0056
0.14998,94989.948,3.61,0.80972,,0.0,2.7935,0.54143,3.61,0.80972,4.21692,0.237212,2.7935,0.541438,0.00962001,7.04012,0.0056
0.14998,95109.949,3.6111,0.81472,,0.0,2.8115,0.54159,,,,,2.8115,0.541618,0.0105071,7.04012,0.0056
0.14998,95229.949,3.6125,0.81972,,0.0,2.8296,0.5418,,,,,2.8296,0.541799,0.00959596,7.2066,0.0056
0.14998,95349.949,3.6136,0.82472,,4.1584,2.8477,0.54197,,,,,2.8477,0.541977,0.00955463,7.2066,0.0056
0.14998,95469.948,3.6149,0.82972,,0.0,2.8657,0.54216,,,,,2.8657,0.542152,0.0103468,7.2066,0.0056
0.14998,95589.949,3.6159,0.83471,,0.0,2.8838,0.54231,,,,,2.8838,0.542324,0.00963203,7.2066,0.0056
0.14998,95709.949,3.6171,0.83971,,0.0,2.9019,0.54249,,,,,2.9019,0.542495,0.00895478,7.33098,0.0056
0.14999,95829.948,3.6184,0.84471,,0.0,2.92,0.54272,,,,,2.92,0.542677,0.0102341,7.33098,0.0056
0.14999,95949.95,3.6194,0.84971,,,2.938,0.54287,,,,,2.938,0.542864,0.0104861,7.33098,0.0056
0.14998,96069.948,3.6207,0.85471,,,2.9561,0.54303,,,,,2.9561,0.543033,0.00886832,7.33098,0.0056
0.14998,96189.948,3.6217,0.8597,,,2.9742,0.54318,,,,,2.9742,0.543194,0.00911028,7.33098,0.0056
0.14998,96309.95,3.6228,0.8647,,,2.9923,0.54335,,,,,2.9923,0.543364,0.00935322,7.41334,0.0056
0.14998,96429.948,3.6241,0.8697,,4.3694,3.0104,0.54354,,,,,3.0104,0.543537,0.00954931,7.41334,0.0056
0.14999,96549.95,3.625,0.8747,,0.0,3.0286,0.54371,,,,,3.0286,0.543705,0.00894655,7.41334,0.0056
0.14998,96669.949,3.6264,0.8797,,0.0,3.0467,0.54389,3.6264,0.8797,4.46458,0.225771,3.0467,0.543877,0.00935731,7.41334,0.0056
0.14998,96789.948,3.6274,0.8847,,0.0,3.0648,0.54404,,,,,3.0648,0.544025,0.0088145,7.41334,0.0056
0.14997,96909.948,3.6284,0.88969,,0.0,3.0829,0.54415,,,,,3.0829,0.544196,0.00927331,7.51354,0.0056
0.14999,97029.948,3.6297,0.89469,,,3.1011,0.54442,,,,,3.1011,0.544363,0.00958803,7.51354,0.0056
0.14998,97149.948,3.6306,0.89969,,,3.1192,0.54452,,,,,3.1192,0.544549,0.0092153,7.51354,0.0056
0.14999,97269.947,3.6319,0.90469,,,3.1374,0.54475,,,,,3.1374,0.544707,0.00932401,7.51354,0.0056
0.14998,97389.948,3.6329,0.90969,,,3.1555,0.54486,,,,,3.1555,0.544878,0.0092409,7.51354,0.0056
0.14998,97509.948,3.6339,0.91469,,4.516,3.1737,0.54501,3.6339,0.91469,4.49187,0.222924,3.1737,0.545038,0.00870558,7.57982,0.0056
0.14998,97629.95,3.6352,0.91968,,0.0,3.1919,0.54521,,,,,3.1919,0.545201,0.00901479,7.57982,0.0056
0.14998,97749.949,3.6361,0.92468,,0.0,3.21,0.54534,,,,,3.21,0.545371,0.00901552,7.57982,0.0056
0.14998,97869.948,3.6374,0.92968,,0.0,3.2282,0.54554,,,,,3.2282,0.545525,0.00890776,7.57982,0.0056
0.14998,97989.948,3.6383,0.93468,,0.0,3.2464,0.54567,,,,,3.2464,0.545686,0.00868179,7.57982,0.0056
0.14999,98109.948,3.6394,0.93968,,,3.2646,0.54587,,,,,3.2646,0.545858,0.00974026,7.62993,0.0056
0.14999,98229.948,3.6406,0.94468,,,3.2828,0.54605,,,,,3.2828,0.546025,0.00918605,7.62993,0.0056
0.14998,98349.949,3.6415,0.94967,,,3.301,0.54615,,,,,3.301,0.546182,0.00808239,7.62993,0.0056
0.14999,98469.948,3.6427,0.95467,,,3.3192,0.54637,,,,,3.3192,0.546335,0.00890062,7.62993,0.0056
0.14998,98589.948,3.6438,0.95967,,4.6198,3.3374,0.5465,,,,,3.3374,0.546499,0.00829884,7.62993,0.0056
0.14998,98709.949,3.6448,0.96467,,0.0,3.3556,0.54665,,,,,3.3556,0.546655,0.00949289,7.61384,0.0056
0.14998,98829.948,3.646,0.96967,,0.0,3.3738,0.54683,3.646,0.96967,4.56257,0.219951,3.3738,0.546823,0.00942391,7.61384,0.0056
0.14998,98949.95,3.647,0.97467,,0.0,3.3921,0.54698,,,,,3.3921,0.547006,0.00966322,7.61384,0.0056
0.14999,99069.948,3.6482,0.97966,,0.0,3.4103,0.54719,,,,,3.4103,0.547158,0.00807764,7.61384,0.0056
0.14998,99189.948,3.6492,0.98466,,,3.4285,0.54731,,,,,3.4285,0.547321,0.00905999,7.61384,0.0056
0.15,99309.948,3.6502,0.98966,,,3.4468,0.54753,3.6502,0.98966,4.56769,0.219663,3.4468,0.547488,0.0092145,7.61384,0.0056
0.14999,99429.949,3.6514,0.99466,,,3.465,0.54767,,,,,3.465,0.547646,0.00804196,7.52163,0.0056
0.14998,99549.947,3.6523,0.99966,,,3.4833,0.54777,,,,,3.4833,0.547788,0.00846958,7.52163,0.0056
0.14998,99669.948,3.6536,1.0047,,,3.5015,0.54797,,,,,3.5015,0.547955,0.00940732,7.52163,0.0056
0.14998,99789.95,3.6547,1.0097,,,3.5198,0.54813,,,,,3.5198,0.548136,0.009569,7.52163,0.0056
0.14999,99909.948,3.6556,1.0147,,,3.5381,0.5483,,,,,3.5381,0.548296,0.00892226,7.52163,0.0056
0.14998,100029.948,3.6569,1.0197,,,3.5563,0.54846,,,,,3.5563,0.548464,0.00881554,7.42133,0.0056
0.14999,100149.951,3.6579,1.0247,,,3.5746,0.54865,3.6579,1.0247,4.54726,0.220683,3.5746,0.548635,0.00939717,7.42133,0.0056
0.14998,100269.948,3.6592,1.0297,,4.5562,3.5929,0.54881,,,,,3.5929,0.548807,0.00924279,7.42133,0.0056
0.14998,100389.948,3.6601,1.0346,,0.0,3.6112,0.54894,,,,,3.6112,0.548972,0.0092321,7.42133,0.0056
0.14998,100509.95,3.6612,1.0396,,0.0,3.6295,0.54911,,,,,3.6295,0.549135,0.00882641,7.42133,0.0056
0.14997,100629.949,3.6625,1.0446,,0.0,3.6478,0.54927,,,,,3.6478,0.549297,0.00890747,7.33907,0.0056
0.14998,100749.948,3.6635,1.0496,,4.4148,3.6661,0.54945,,,,,3.6661,0.549479,0.0101581,7.33907,0.0056
0.15,100869.949,3.6646,1.0546,,0.0,3.6844,0.54969,,,,,3.6844,0.549655,0.00946804,7.33907,0.0056
0.14997,100989.948,3.666,1.0596,,,3.7028,0.54979,3.666,1.0596,4.38047,0.228571,3.7028,0.549822,0.00931957,7.33907,0.0056
0.14999,101109.949,3.6669,1.0646,,,3.7211,0.55,,,,,3.7211,0.549988,0.0098226,7.33907,0.0056
0.14999,101229.949,3.6683,1.0696,,,3.7394,0.55021,,,,,3.7394,0.550182,0.00927423,7.25671,0.0056
0.14999,101349.949,3.6693,1.0746,,,3.7578,0.55036,,,,,3.7578,0.550332,0.00888949,7.25671,0.0056
0.14998,101469.95,3.6704,1.0796,,,3.7761,0.55049,,,,,3.7761,0.550503,0.00965321,7.25671,0.0056
0.14999,101589.949,3.6718,1.0846,,,3.7945,0.55073,,,,,3.7945,0.550687,0.0102516,7.25671,0.0056
0.14998,101709.95,3.6729,1.0896,0.0,,3.8128,0.55086,,,,,3.8128,0.550876,0.00915679,7.09831,0.0056
0.14998,101829.949,3.6742,1.0946,,4.22,3.8312,0.55106,3.6742,1.0946,4.06132,0.246227,3.8312,0.551036,0.00928383,7.09831,0.0056
0.14997,101949.948,3.6753,1.0996,,0.0,3.8495,0.55118,,,,,3.8495,0.551217,0.0102109,7.09831,0.0056
0.14998,102069.949,3.6765,1.1046,,0.0,3.8679,0.5514,,,,,3.8679,0.551405,0.0107872,7.09831,0.0056
0.14998,102189.948,3.6779,1.1096,,0.0,3.8863,0.55161,3.6779,1.1096,4.1068,0.24359,3.8863,0.551608,0.0105237,7.09831,0.0056
0.14999,102309.948,3.6789,1.1146,,4.0897,3.9047,0.5518,,,,,3.9047,0.551793,0.00961086,6.93982,0.0056
0.14999,102429.948,3.6803,1.1196,,0.0,3.9231,0.55201,,,,,3.9231,0.551972,0.00994024,6.93982,0.0056
0.14998,102549.948,3.6816,1.1246,,0.0,3.9415,0.55217,,,,,3.9415,0.552155,0.010279,6.93982,0.0056
0.14998,102669.949,3.6828,1.1296,,0.0,3.9599,0.55235,,,,,3.9599,0.552347,0.0108178,6.93982,0.0056
0.14998,102789.949,3.6842,1.1346,,3.9434,3.9783,0.55256,,,,,3.9783,0.552546,0.0099473,6.78328,0.0056
0.14998,102909.949,3.6853,1.1396,,0.0,3.9967,0.55272,,,,,3.9967,0.552724,0.00994024,6.78328,0.0056
0.14997,103029.948,3.6867,1.1446,,0.0,4.0152,0.55289,,,,,4.0152,0.552914,0.0112958,6.78328,0.0056
0.14998,103149.948,3.6881,1.1496,,0.0,4.0336,0.55314,,,,,4.0336,0.553135,0.0116742,6.78328,0.0056
0.14999,103269.949,3.6893,1.1546,,,4.052,0.55336,,,,,4.052,0.553348,0.010999,6.78328,0.0056
0.14998,103389.948,3.6908,1.1596,,,4.0705,0.55355,,,,,4.0705,0.553541,0.0102285,6.64088,0.0056
0.14998,103509.948,3.692,1.1646,,,4.0889,0.55373,,,,,4.0889,0.553729,0.010886,6.64088,0.0056
0.14998,103629.948,3.6933,1.1696,0.26471,,4.1074,0.55392,,,,,4.1074,0.55393,0.0108251,6.64088,0.0056
0.14998,103749.95,3.6948,1.1746,0.0,,4.1258,0.55415,,,,,4.1258,0.554135,0.0112014,6.64088,0.0056
0.14998,103869.948,3.6961,1.1796,0.0,,4.1443,0.55434,,,,,4.1443,0.554348,0.0113543,6.50851,0.0056
0.14998,103989.948,3.6977,1.1846,0.0,,4.1628,0.55458,,,,,4.1628,0.55456,0.0112578,6.50851,0.0056
0.14998,104109.949,3.6989,1.1896,0.0,3.5818,4.1813,0.55476,,,,,4.1813,0.554761,0.0114036,6.50851,0.0056
0.14997,104229.949,3.7003,1.1946,0.0,0.0,4.1998,0.55493,,,,,4.1998,0.554969,0.0116018,6.50851,0.0056
0.14998,104349.95,3.7019,1.1996,0.0,0.0,4.2183,0.55521,3.7019,1.1996,3.51801,0.284364,4.2183,0.555203,0.012154,6.43414,0.0056
0.14999,104469.949,3.7032,1.2046,0.28102,0.0,4.2368,0.55544,,,,,4.2368,0.55543,0.0121227,6.43414,0.0056
0.14997,104589.948,3.7048,1.2096,0.0,,4.2553,0.55561,,,,,4.2553,0.555642,0.0115091,6.43414,0.0056
0.14998,104709.949,3.7061,1.2146,0.0,,4.2738,0.55584,3.7061,1.2146,3.4234,0.293091,4.2738,0.555859,0.0125403,6.43414,0.0056
0.14998,104829.948,3.7077,1.2196,0.0,,4.2924,0.55608,,,,,4.2924,0.556094,0.011922,6.32594,0.0056
0.14998,104949.948,3.7093,1.2246,0.0,3.3836,4.3109,0.55632,,,,,4.3109,0.556318,0.0119839,6.32594,0.0056
0.14998,105069.95,3.7107,1.2296,0.0,0.0,4.3294,0.55653,,,,,4.3294,0.556536,0.0122574,6.32594,0.0056
0.14998,105189.95,3.7123,1.2346,0.0,0.0,4.348,0.55677,,,,,4.348,0.556775,0.0134828,6.23549,0.0056
0.14999,105309.948,3.7137,1.2396,,3.2772,4.3666,0.55702,3.7137,1.2396,3.20935,0.312,4.3666,0.557032,0.013965,6.23549,0.0056
0.14999,105429.948,3.7154,1.2446,,0.0,4.3851,0.55727,,,,,4.3851,0.557265,0.0108574,6.23549,0.0056
0.14998,105549.948,3.7169,1.2496,,0.0,4.4037,0.55746,,,,,4.4037,0.557474,0.0122492,6.23549,0.0056
0.14998,105669.947,3.7184,1.2546,,0.0,4.4223,0.55769,,,,,4.4223,0.557704,0.0125797,6.09318,0.0056
0.14998,105789.948,3.7202,1.2596,0.0,,4.4409,0.55796,,,,,4.4409,0.557946,0.0134967,6.09318,0.0056
0.14998,105909.949,3.7216,1.2646,0.0,,4.4595,0.55817,,,,,4.4595,0.558193,0.0125704,6.09318,0.0056
0.14999,106029.948,3.7234,1.2696,0.31617,,4.4781,0.55847,,,,,4.4781,0.558427,0.0131476,6.00097,0.0056
0.14998,106149.95,3.7248,1.2746,0.0,,4.4967,0.55865,,,,,4.4967,0.55867,0.0125751,6.00097,0.0056
0.14999,106269.949,3.7264,1.2796,0.0,,4.5153,0.55892,3.7264,1.2796,3.02564,0.331111,4.5153,0.558898,0.0132221,6.00097,0.0056
0.14998,106389.948,3.7282,1.2846,0.0,,4.534,0.55916,,,,,4.534,0.559161,0.0137157,6.00097,0.0056
0.14999,106509.948,3.7298,1.2896,0.0,,4.5526,0.55943,3.7298,1.2896,2.95684,0.338222,4.5526,0.559413,0.0136387,5.99473,0.0056
0.14999,106629.948,3.7314,1.2946,0.0,,4.5712,0.55967,,,,,4.5712,0.559666,0.0130441,5.99473,0.0056
0.14998,106749.947,3.7332,1.2996,0.32871,,4.5899,0.55991,,,,,4.5899,0.5599,0.0130056,5.99473,0.0056
0.14998,106869.949,3.7347,1.3046,0.0,,4.6086,0.56013,,,,,4.6086,0.560148,0.0138306,5.95272,0.0056
0.14999,106989.948,3.7365,1.3096,0.0,,4.6272,0.56044,,,,,4.6272,0.560421,0.0142681,5.95272,0.0056
0.14999,107109.948,3.7383,1.3146,0.0,,4.6459,0.56071,3.7383,1.3146,2.92608,0.341778,4.6459,0.560678,0.0128734,5.95272,0.0056
0.14998,107229.948,3.7398,1.3196,0.0,,4.6646,0.5609,,,,,4.6646,0.560916,0.0135874,5.95272,0.0056
0.14998,107349.948,3.7417,1.3246,0.0,,4.6833,0.56118,3.7417,1.3246,2.98996,0.334667,4.6833,0.561181,0.0142545,5.93469,0.0056
0.14998,107469.949,3.7434,1.3296,0.33951,,4.702,0.56144,,,,,4.702,0.561439,0.0128228,5.93469,0.0056
0.14997,107589.949,3.745,1.3346,0.0,,4.7207,0.56164,,,,,4.7207,0.561673,0.0130065,5.93469,0.0056
0.14997,107709.949,3.7469,1.3396,0.0,,4.7395,0.56192,,,,,4.7395,0.561933,0.0142931,5.95272,0.0056
0.14998,107829.949,3.7485,1.3446,0.0,,4.7582,0.5622,,,,,4.7582,0.5622,0.014212,5.95272,0.0056
0.14998,107949.948,3.7501,1.3496,0.0,,4.7769,0.56244,3.7501,1.3496,2.83665,0.352889,4.7769,0.562465,0.0135697,5.95272,0.0056
0.14998,108069.948,3.7521,1.3546,0.0,,4.7957,0.56274,,,,,4.7957,0.562716,0.0135535,5.97865,0.0056
0.14997,108189.949,3.7537,1.3596,0.34582,2.88,4.8145,0.56294,3.7537,1.3596,2.86935,0.349333,4.8145,0.562967,0.0137177,5.97865,0.0056
0.14997,108309.949,3.7555,1.3646,0.0,0.0,4.8332,0.56321,,,,,4.8332,0.56322,0.0135235,5.97865,0.0056
0.14998,108429.949,3.7571,1.3696,0.0,0.0,4.852,0.56349,,,,,4.852,0.563478,0.0136709,5.89453,0.0056
0.14998,108549.947,3.7588,1.3746,0.0,2.8905,4.8708,0.56374,,,,,4.8708,0.563736,0.0140255,5.89453,0.0056
0.14998,108669.95,3.7607,1.3796,0.0,0.0,4.8896,0.56403,,,,,4.8896,0.564006,0.0150847,5.89453,0.0056
0.14999,108789.949,3.7623,1.3846,0.0,0.0,4.9084,0.56431,3.7623,1.3846,2.89747,0.345333,4.9084,0.564287,0.0144101,5.89453,0.0056
0.14999,108909.949,3.7642,1.3896,,2.8914,4.9272,0.56459,,,,,4.9272,0.564554,0.0136202,5.8264,0.0056
0.14999,109029.947,3.7657,1.3946,,0.0,4.946,0.56482,3.7657,1.3946,2.89747,0.345333,4.946,0.564803,0.0136801,5.8264,0.0056
0.14998,109149.949,3.7675,1.3996,,0.0,4.9648,0.56505,,,,,4.9648,0.565058,0.0127616,5.8264,0.0056
0.14998,109269.947,3.7694,1.4046,,2.8933,4.9837,0.56533,,,,,4.9837,0.565297,0.0129801,5.85242,0.0056
0.14997,109389.95,3.7709,1.4096,,0.0,5.0025,0.56552,,,,,5.0025,0.565554,0.0138183,5.85242,0.0056
0.14998,109509.948,3.7728,1.4146,,0.0,5.0214,0.56584,,,,,5.0214,0.565818,0.0146288,5.85242,0.0056
0.14998,109629.948,3.7744,1.4196,,2.9152,5.0403,0.56608,,,,,5.0403,0.566091,0.0140277,5.92855,0.0056
0.14999,109749.95,3.776,1.4246,,0.0,5.0591,0.56636,,,,,5.0591,0.566363,0.0136413,5.92855,0.0056
0.14999,109869.949,3.778,1.4296,,0.0,5.078,0.56666,3.778,1.4296,2.94199,0.34,5.078,0.566614,0.0136985,5.92855,0.0056
0.14997,109989.949,3.7794,1.4346,,,5.0969,0.5668,,,,,5.0969,0.566861,0.0131058,5.96071,0.0056
0.14998,110109.95,3.7813,1.4396,,,5.1158,0.56712,,,,,5.1158,0.567111,0.0136849,5.96071,0.0056
0.14999,110229.95,3.7828,1.4446,,,5.1347,0.56738,,,,,5.1347,0.567376,0.0132302,5.96071,0.0056
0.14998,110349.949,3.7847,1.4495,,,5.1536,0.56763,,,,,5.1536,0.567636,0.0140852,5.96071,0.0056
0.14999,110469.948,3.7864,1.4545,,,5.1725,0.56792,3.7864,1.4545,2.94619,0.339424,5.1725,0.567892,0.0133895,5.9688,0.0056
0.14998,110589.949,3.7879,1.4595,,,5.1915,0.56811,,,,,5.1915,0.56814,0.0133259,5.9688,0.0056
0.14998,110709.949,3.7898,1.4645,,,5.2104,0.56839,3.7898,1.4645,2.98996,0.334667,5.2104,0.568386,0.013044,5.9688,0.0056
0.14999,110829.95,3.7913,1.4695,,,5.2293,0.56866,,,,,5.2293,0.568653,0.0143802,6.01082,0.0056
0.14999,110949.95,3.7931,1.4745,0.33617,,5.2483,0.56893,,,,,5.2483,0.568914,0.012586,6.01082,0.0056
0.14999,111069.949,3.7948,1.4795,0.0,,5.2673,0.56918,,,,,5.2673,0.569155,0.0131862,6.01082,0.0056
0.14998,111189.949,3.7963,1.4845,,,5.2862,0.56937,,,,,5.2862,0.569377,0.0113693,6.027,0.0056
0.14997,111309.948,3.7981,1.4895,,,5.3052,0.5696,3.7981,1.4895,2.97619,0.336,5.3052,0.569623,0.0132923,6.027,0.0056
0.14999,111429.948,3.7996,1.4945,,,5.3242,0.5699,,,,,5.3242,0.569869,0.0134769,6.027,0.0056
0.14997,111549.949,3.8013,1.4995,,,5.3432,0.57008,,,,,5.3432,0.570146,0.0146161,6.027,0.0056
0.14999,111669.95,3.8031,1.5045,,,5.3622,0.57043,,,,,5.3622,0.570401,0.0131852,6.06901,0.0056
0.14999,111789.95,3.8045,1.5095,,,5.3812,0.57064,,,,,5.3812,0.570651,0.0114764,6.06901,0.0056
0.14998,111909.949,3.8064,1.5145,,,5.4002,0.57088,3.8064,1.5145,3.09159,0.323556,5.4002,0.570868,0.0128116,6.06901,0.0056
0.14998,112029.948,3.8079,1.5195,,,5.4193,0.57111,,,,,5.4193,0.571112,0.0133814,6.04493,0.0056
0.14998,112149.949,3.8096,1.5245,,,5.4383,0.57136,3.8096,1.5245,3.125,0.32,5.4383,0.571381,0.0137594,6.04493,0.0056
0.14999,112269.948,3.8114,1.5295,,,5.4573,0.57167,,,,,5.4573,0.57163,0.0124509,6.04493,0.0056
0.14998,112389.949,3.8128,1.5345,,,5.4764,0.57184,,,,,5.4764,0.571875,0.0128161,5.9768,0.0056
0.14998,112509.948,3.8146,1.5395,,,5.4955,0.57211,,,,,5.4955,0.572102,0.0122515,5.9768,0.0056
0.14997,112629.949,3.8162,1.5445,,,5.5145,0.57232,,,,,5.5145,0.572348,0.0126514,5.9768,0.0056
0.14998,112749.949,3.8178,1.5495,,,5.5336,0.57259,3.8178,1.5495,3.01292,0.332,5.5336,0.572597,0.0141559,5.9768,0.0056
0.14998,112869.95,3.8196,1.5545,,3.0278,5.5527,0.57286,,,,,5.5527,0.572871,0.0139645,5.94278,0.0056
0.14999,112989.949,3.8211,1.5595,,0.0,5.5718,0.57313,,,,,5.5718,0.573118,0.0124781,5.94278,0.0056
0.14999,113109.948,3.8227,1.5645,,0.0,5.5909,0.57337,,,,,5.5909,0.573364,0.0125924,5.94278,0.0056
0.14999,113229.948,3.8245,1.5695,,3.0523,5.61,0.57364,,,,,5.61,0.573602,0.0124751,6.00282,0.0056
0.14998,113349.95,3.826,1.5745,,0.0,5.6291,0.57382,3.826,1.5745,2.97957,0.336,5.6291,0.573829,0.0119229,6.00282,0.0056
0.14998,113469.949,3.8276,1.5795,,0.0,5.6483,0.57406,,,,,5.6483,0.574078,0.0137582,6.00282,0.0056
0.14998,113589.948,3.8295,1.5845,,3.0125,5.6674,0.57435,,,,,5.6674,0.57433,0.0127976,6.00282,0.0056
0.14997,113709.949,3.8309,1.5895,,0.0,5.6865,0.57452,,,,,5.6865,0.574589,0.0136736,6.05292,0.0056
0.14999,113829.95,3.8328,1.5945,,0.0,5.7057,0.57488,,,,,5.7057,0.57483,0.0126962,6.05292,0.0056
0.14998,113949.95,3.8343,1.5995,,3.0355,5.7249,0.57507,3.8343,1.5995,3.02564,0.331111,5.7249,0.575103,0.0136891,6.05292,0.0056
0.15,114069.949,3.8359,1.6045,,0.0,5.744,0.57539,,,,,5.744,0.575337,0.0123151,6.027,0.0056
0.14998,114189.948,3.8377,1.6095,,0.0,5.7632,0.57558,3.8377,1.6095,2.95684,0.338222,5.7632,0.575584,0.0124346,6.027,0.0056
0.14998,114309.95,3.8392,1.6145,,3.0268,5.7824,0.5758,,,,,5.7824,0.575816,0.013332,6.027,0.0056
0.14998,114429.949,3.841,1.6195,,0.0,5.8016,0.57607,,,,,5.8016,0.576073,0.0120761,6.01082,0.0056
0.14998,114549.948,3.8425,1.6245,,0.0,5.8208,0.5763,,,,,5.8208,0.576312,0.012854,6.01082,0.0056
0.14998,114669.949,3.8441,1.6295,,3.0184,5.84,0.57654,,,,,5.84,0.576557,0.0134492,6.01082,0.0056
0.14998,114789.948,3.846,1.6345,,0.0,5.8592,0.57682,3.846,1.6345,3.04878,0.328,5.8592,0.57683,0.0141121,6.01082,0.0056
0.14999,114909.949,3.8475,1.6395,,0.0,5.8784,0.57709,,,,,5.8784,0.577084,0.0124995,5.9688,0.0056
0.14999,115029.948,3.8491,1.6445,,2.9935,5.8977,0.57733,,,,,5.8977,0.577331,0.0129735,5.9688,0.0056
0.14998,115149.949,3.851,1.6495,,0.0,5.9169,0.57757,,,,,5.9169,0.577567,0.0127277,5.9688,0.0056
0.14998,115269.949,3.8525,1.6545,,0.0,5.9362,0.5778,,,,,5.9362,0.577817,0.0125204,5.9768,0.0056
0.14999,115389.949,3.8543,1.6595,,3.0197,5.9554,0.57811,3.8543,1.6595,3.00649,0.332667,5.9554,0.578069,0.0138159,5.9768,0.0056
0.14998,115509.948,3.8559,1.6645,,0.0,5.9747,0.57831,,,,,5.9747,0.578333,0.0135214,5.9768,0.0056
0.14999,115629.948,3.8576,1.6695,,0.0,5.994,0.5786,3.8576,1.6695,3.03854,0.329111,5.994,0.578586,0.0131218,6.00282,0.0056
0.14999,115749.948,3.8593,1.6745,,2.9877,6.0133,0.57886,,,,,6.0133,0.578844,0.0127206,6.00282,0.0056
0.14999,115869.949,3.8608,1.6795,,0.0,6.0326,0.57908,,,,,6.0326,0.579088,0.0134725,6.00282,0.0056
0.14999,115989.949,3.8625,1.6845,,0.0,6.0519,0.57934,,,,,6.0519,0.579347,0.0132805,6.00282,0.0056
0.14999,116109.949,3.8644,1.6895,,2.9933,6.0712,0.57962,,,,,6.0712,0.579605,0.0131612,6.01891,0.0056
0.14999,116229.948,3.8659,1.6945,,0.0,6.0905,0.57985,3.8659,1.6945,3.01292,0.332,6.0905,0.579849,0.0118311,6.01891,0.0056
0.14999,116349.948,3.8676,1.6995,,0.0,6.1098,0.5801,,,,,6.1098,0.580079,0.0124372,6.01891,0.0056
0.14998,116469.948,3.8694,1.7045,,2.9591,6.1292,0.58033,,,,,6.1292,0.580327,0.0134481,6.01891,0.0056
0.14999,116589.949,3.8709,1.7095,,0.0,6.1485,0.5806,,,,,6.1485,0.580605,0.0146294,6.01891,0.0056
0.14999,116709.948,3.8728,1.7145,,0.0,6.1679,0.58088,,,,,6.1679,0.580864,0.0122106,6.01891,0.0056
0.14998,116829.949,3.8743,1.7195,,2.9937,6.1872,0.58107,3.8743,1.7195,2.8795,0.347333,6.1872,0.581092,0.0120007,6.01891,0.0056
0.14998,116949.948,3.8761,1.7245,,0.0,6.2066,0.58134,,,,,6.2066,0.581334,0.0129647,6.00282,0.0056
0.14999,117069.95,3.8778,1.7295,,0.0,6.226,0.58163,3.8778,1.7295,2.9454,0.340222,6.226,0.581597,0.0135962,6.00282,0.0056
0.14999,117189.949,3.8793,1.7345,,2.9649,6.2454,0.58186,,,,,6.2454,0.581863,0.0135136,6.00282,0.0056
0.14999,117309.95,3.8812,1.7395,,0.0,6.2648,0.58214,,,,,6.2648,0.582098,0.0120699,5.9768,0.0056
0.14998,117429.95,3.8826,1.7445,,0.0,6.2842,0.58231,,,,,6.2842,0.58234,0.0124068,5.9768,0.0056
0.14999,117549.949,3.8845,1.7495,,3.003,6.3036,0.58264,,,,,6.3036,0.58259,0.0132927,5.9768,0.0056
0.14999,117669.95,3.8861,1.7545,,0.0,6.323,0.58288,3.8861,1.7545,2.97619,0.336,6.323,0.582865,0.0139108,5.98489,0.0056
0.14999,117789.95,3.8876,1.7595,,0.0,6.3424,0.5831,,,,,6.3424,0.583105,0.0124292,5.98489,0.0056
0.14998,117909.95,3.8895,1.7645,,3.0039,6.3619,0.58335,,,,,6.3619,0.583353,0.0123057,5.98489,0.0056
0.14999,118029.95,3.891,1.7695,,0.0,6.3813,0.58361,,,,,6.3813,0.583582,0.0116615,5.98489,0.0056
0.14998,118149.948,3.8926,1.7745,,0.0,6.4008,0.58381,,,,,6.4008,0.583826,0.0125211,6.08509,0.0056
0.14999,118269.949,3.8944,1.7795,,3.0299,6.4202,0.58412,3.8944,1.7795,3.07471,0.325279,6.4202,0.58407,0.0135017,6.08509,0.0056
0.14998,118389.949,3.8959,1.7844,,0.0,6.4397,0.58431,,,,,6.4397,0.584335,0.013353,6.08509,0.0056
0.14999,118509.95,3.8976,1.7894,,0.0,6.4592,0.5846,,,,,6.4592,0.584578,0.0116924,6.22564,0.0056
0.14999,118629.947,3.8992,1.7944,,3.1172,6.4787,0.58484,,,,,6.4787,0.584801,0.0106953,6.22564,0.0056
0.14998,118749.949,3.9006,1.7994,,0.0,6.4982,0.58501,,,,,6.4982,0.58502,0.0124043,6.22564,0.0056
0.14998,118869.949,3.9024,1.8044,,0.0,6.5177,0.58528,3.9024,1.8044,3.25663,0.308,6.5177,0.585256,0.0113143,6.45831,0.0056
0.14998,118989.95,3.9037,1.8094,0.31824,3.2029,6.5372,0.58548,,,,,6.5372,0.585479,0.0116477,6.45831,0.0056
0.14997,119109.947,3.9053,1.8144,0.0,0.0,6.5567,0.58568,,,,,6.5567,0.585703,0.0111472,6.45831,0.0056
0.14998,119229.949,3.9068,1.8194,0.0,0.0,6.5762,0.58594,,,,,6.5762,0.585935,0.0128523,6.45831,0.0056
0.14998,119349.949,3.9081,1.8244,0.0,0.0,6.5958,0.58614,,,,,6.5958,0.586166,0.00988108,6.70901,0.0056
0.14998,119469.951,3.9098,1.8294,0.0,,6.6153,0.58639,3.9098,1.8294,3.60873,0.27981,6.6153,0.586369,0.011262,6.70901,0.0056
0.14998,119589.95,3.9109,1.8344,0.0,,6.6348,0.58656,,,,,6.6348,0.586588,0.0112271,6.70901,0.0056
0.14998,119709.948,3.9125,1.8394,0.0,,6.6544,0.5868,,,,,6.6544,0.586797,0.0103234,6.70901,0.0056
0.14998,119829.948,3.9137,1.8444,,3.6392,6.674,0.58698,,,,,6.674,0.586982,0.00896991,6.90766,0.0056
0.14998,119949.948,3.915,1.8494,,0.0,6.6935,0.58717,,,,,6.6935,0.587176,0.010171,6.90766,0.0056
0.14999,120069.95,3.9164,1.8544,0.0,,6.7131,0.58742,,,,,6.7131,0.587386,0.0116839,6.90766,0.0056
0.14998,120189.948,3.9176,1.8594,0.0,,6.7327,0.58756,,,,,6.7327,0.587592,0.00916821,6.90766,0.0056
0.14999,120309.948,3.9188,1.8644,0.0,3.886,6.7523,0.58778,,,,,6.7523,0.587769,0.00914613,6.90766,0.0056
0.14998,120429.95,3.9202,1.8694,0.0,0.0,6.7719,0.58795,,,,,6.7719,0.58794,0.00830683,7.02404,0.0056
0.14998,120549.948,3.9212,1.8744,0.0,0.0,6.7915,0.5881,,,,,6.7915,0.588112,0.0100539,7.02404,0.0056
0.14999,120669.948,3.9225,1.8794,0.0,0.0,6.8111,0.58834,,,,,6.8111,0.58832,0.0095459,7.02404,0.0056
0.14999,120789.949,3.9239,1.8844,,4.097,6.8307,0.58855,,,,,6.8307,0.588497,0.00941338,7.02404,0.0056
0.14997,120909.95,3.9249,1.8894,,0.0,6.8503,0.58862,,,,,6.8503,0.588677,0.00956357,7.04198,0.0056
0.14999,121029.949,3.9263,1.8944,,0.0,6.8699,0.58891,3.9263,1.8944,4.04321,0.247912,6.8699,0.58887,0.00962541,7.04198,0.0056
0.14999,121149.948,3.9274,1.8994,,,6.8896,0.58907,,,,,6.8896,0.589053,0.00854914,7.04198,0.0056
0.14998,121269.949,3.9285,1.9044,,,6.9092,0.5892,,,,,6.9092,0.589222,0.00918146,7.04198,0.0056
0.14999,121389.951,3.9299,1.9094,,,6.9288,0.58945,3.9299,1.9094,4.16667,0.24,6.9288,0.589401,0.0091874,7.04198,0.0056
0.14998,121509.95,3.931,1.9144,,,6.9485,0.58957,,,,,6.9485,0.589587,0.00900477,6.90766,0.0056
0.14998,121629.95,3.9324,1.9194,,,6.9681,0.58978,,,,,6.9681,0.589762,0.00926018,6.90766,0.0056
0.14998,121749.948,3.9335,1.9244,0.24369,,6.9878,0.58995,,,,,6.9878,0.589948,0.0105376,6.90766,0.0056
0.14998,121869.948,3.9347,1.9294,0.0,,7.0075,0.59013,,,,,7.0075,0.590164,0.0107036,6.90766,0.0056
0.15,121989.949,3.9362,1.9344,0.0,,7.0271,0.59043,,,,,7.0271,0.590355,0.00841574,6.69107,0.0056
0.14998,122109.948,3.9373,1.9394,0.0,,7.0468,0.59052,,,,,7.0468,0.590524,0.00826926,6.69107,0.0056
0.14998,122229.951,3.9388,1.9444,0.0,,7.0665,0.59074,,,,,7.0665,0.590692,0.0102971,6.69107,0.0056
0.14997,122349.948,3.9401,1.9494,0.0,,7.0862,0.5909,,,,,7.0862,0.590909,0.011304,6.69107,0.0056
0.14998,122469.949,3.9413,1.9544,0.0,,7.1059,0.59112,,,,,7.1059,0.591131,0.0109362,6.69107,0.0056
0.14999,122589.948,3.9428,1.9594,0.0,,7.1256,0.59138,,,,,7.1256,0.59135,0.0103232,6.49233,0.0056
0.14998,122709.949,3.944,1.9644,,3.6765,7.1453,0.59152,,,,,7.1453,0.591548,0.0107749,6.49233,0.0056
0.14998,122829.95,3.9456,1.9694,,0.0,7.165,0.59176,,,,,7.165,0.591768,0.0117504,6.49233,0.0056
0.14999,122949.949,3.9471,1.9744,,0.0,7.1848,0.59203,,,,,7.1848,0.592008,0.0115569,6.49233,0.0056
0.14999,123069.948,3.9484,1.9794,,0.0,7.2045,0.59222,,,,,7.2045,0.592222,0.0101294,6.28383,0.0056
0.14998,123189.948,3.9501,1.9844,,,7.2242,0.59244,3.9501,1.9844,3.37838,0.296,7.2242,0.592416,0.0107703,6.28383,0.0056
0.14998,123309.948,3.9513,1.9894,,,7.244,0.59262,,,,,7.244,0.592641,0.0116796,6.28383,0.0056
0.14999,123429.949,3.953,1.9944,,,7.2638,0.59291,,,,,7.2638,0.592875,0.0118905,6.14328,0.0056
0.14998,123549.949,3.9547,1.9994,,,7.2835,0.59313,,,,,7.2835,0.593119,0.0125454,6.14328,0.0056
0.14999,123669.949,3.956,2.0044,,,7.3033,0.59336,,,,,7.3033,0.593358,0.0122655,6.14328,0.0056
0.14999,123789.949,3.9578,2.0094,,,7.3231,0.59363,3.9578,2.0094,3.05241,0.328,7.3231,0.593608,0.0119048,6.14328,0.0056
0.14999,123909.949,3.9593,2.0144,,3.1457,7.3429,0.59386,,,,,7.3429,0.593837,0.0114369,5.98674,0.0056
0.14997,124029.949,3.9611,2.0194,,0.0,7.3627,0.59405,,,,,7.3627,0.594072,0.0130045,5.98674,0.0056
0.14998,124149.949,3.9627,2.0244,,0.0,7.3825,0.59433,,,,,7.3825,0.594332,0.0138244,5.98674,0.0056
0.14999,124269.949,3.9643,2.0294,,2.9727,7.4023,0.59461,,,,,7.4023,0.594617,0.0131444,5.81031,0.0056
0.14999,124389.949,3.9663,2.0344,,0.0,7.4221,0.59491,3.9663,2.0344,2.8795,0.347333,7.4221,0.594866,0.0128296,5.81031,0.0056
0.14998,124509.949,3.9679,2.0394,,0.0,7.4419,0.59511,,,,,7.4419,0.595129,0.0137938,5.81031,0.0056
0.14999,124629.948,3.9698,2.0444,,,7.4618,0.59543,3.9698,2.0444,2.77281,0.361556,7.4618,0.595403,0.0132919,5.68594,0.0056
0.14998,124749.949,3.9717,2.0494,,,7.4816,0.59568,,,,,7.4816,0.595668,0.013433,5.68594,0.0056
0.14997,124869.95,3.9734,2.0544,0.3582,,7.5015,0.59589,,,,,7.5015,0.595946,0.0144615,5.68594,0.0056
0.14998,124989.947,3.9754,2.0594,0.0,,7.5213,0.59623,,,,,7.5213,0.596228,0.0143418,5.6296,0.0056
0.14997,125109.949,3.9771,2.0644,0.0,,7.5412,0.59645,,,,,7.5412,0.596511,0.0134197,5.6296,0.0056
0.14998,125229.949,3.9791,2.0694,0.0,2.6168,7.5611,0.59679,,,,,7.5611,0.59679,0.0150726,5.6296,0.0056
0.14998,125349.95,3.9812,2.0744,0.0,0.0,7.581,0.5971,,,,,7.581,0.597109,0.0159857,5.52131,0.0056
0.14999,125469.95,3.983,2.0794,0.38677,0.0,7.6009,0.59741,,,,,7.6009,0.597417,0.0156362,5.52131,0.0056
0.14998,125589.948,3.9852,2.0844,0.0,,7.6208,0.5977,,,,,7.6208,0.597713,0.013999,5.52131,0.0056
0.14998,125709.949,3.987,2.0894,0.0,,7.6408,0.59797,,,,,7.6408,0.597989,0.0143212,5.38699,0.0056
0.14997,125829.95,3.9892,2.0944,0.0,2.4756,7.6607,0.59826,,,,,7.6607,0.598279,0.0151212,5.38699,0.0056
0.14998,125949.948,3.9911,2.0994,,0.0,7.6806,0.59859,,,,,7.6806,0.5986,0.0167126,5.38699,0.0056
0.14999,126069.949,3.9932,2.1044,0.40582,0.0,7.7006,0.59894,,,,,7.7006,0.598928,0.0155823,5.31272,0.0056
0.14998,126189.948,3.9955,2.1094,0.0,,7.7206,0.59925,,,,,7.7206,0.59924,0.0156169,5.31272,0.0056
0.14998,126309.949,3.9974,2.1144,0.0,,7.7405,0.59953,,,,,7.7405,0.59954,0.0153194,5.31272,0.0056
0.14997,126429.948,3.9997,2.1194,0.0,2.3742,7.7605,0.59984,,,,,7.7605,0.599848,0.0157749,5.29664,0.0056
0.14998,126549.948,4.0017,2.1244,0.0,0.0,7.7805,0.60017,4.0017,2.1244,2.35875,0.424762,7.7805,0.600183,0.0171429,5.29664,0.0056
0.14998,126669.949,4.0041,2.1294,0.42638,2.3195,7.8005,0.60053,,,,,7.8005,0.600523,0.0163121,5.31272,0.0056
0.14998,126789.949,4.0061,2.1344,0.0,0.0,7.8206,0.60083,4.0061,2.1344,2.23502,0.447619,7.8206,0.600842,0.0162229,5.31272,0.0056
0.14998,126909.947,4.0082,2.1394,0.0,0.0,7.8406,0.60115,,,,,7.8406,0.601161,0.0157792,5.31272,0.0056
0.14998,127029.949,4.0106,2.1444,0.0,,7.8606,0.60151,,,,,7.8606,0.601487,0.0165241,5.33875,0.0056
0.14998,127149.948,4.0126,2.1494,0.0,,7.8807,0.60181,,,,,7.8807,0.601808,0.0157835,5.33875,0.0056
0.14998,127269.95,4.0149,2.1544,,2.29,7.9008,0.60215,,,,,7.9008,0.602134,0.0165797,5.34674,0.0056
0.14999,127389.95,4.0169,2.1594,,0.0,7.9208,0.60249,,,,,7.9208,0.602462,0.0153947,5.34674,0.0056
0.14998,127509.949,4.0191,2.1644,,2.2857,7.9409,0.60278,,,,,7.9409,0.602787,0.0183761,5.34674,0.0056
0.14998,127629.949,4.0214,2.1694,,0.0,7.961,0.60313,,,,,7.961,0.603175,0.0199805,5.32081,0.0056
0.15002,127749.948,4.0234,2.1744,0.43627,0.0,7.9811,0.60359,,,,,7.9811,0.603586,0.0202501,5.32081,0.0056
0.15002,127869.948,4.0258,2.1794,0.0,,8.0012,0.60395,4.0258,2.1794,2.34689,0.427143,8.0012,0.603954,0.0151664,5.36282,0.0056
0.15003,127989.948,4.0278,2.1844,0.0,,8.0214,0.60429,,,,,8.0214,0.604258,0.0156723,5.36282,0.0056
0.15002,128109.948,4.0299,2.1894,0.0,,8.0415,0.60457,4.0299,2.1894,2.41034,0.415,8.0415,0.604566,0.0151959,5.36282,0.0056
0.15001,128229.948,4.0322,2.1944,0.0,,8.0617,0.60487,,,,,8.0617,0.604872,0.0162338,5.41302,0.0056
0.15001,128349.949,4.0341,2.1994,,2.3731,8.0819,0.60516,4.0341,2.1994,2.35359,0.425,8.0819,0.605198,0.015288,5.41302,0.0056
0.15002,128469.949,4.0364,2.2044,,0.0,8.102,0.60554,,,,,8.102,0.605515,0.015578,5.41302,0.0056
0.15001,128589.951,4.0384,2.2094,,0.0,8.1222,0.6058,4.0384,2.2094,2.336,0.428095,8.1222,0.605818,0.0149586,5.46312,0.0056
0.15001,128709.948,4.0404,2.2144,,,8.1424,0.6061,,,,,8.1424,0.606126,0.0154537,5.46312,0.0056
0.15002,128829.948,4.0426,2.2194,,,8.1626,0.60647,,,,,8.1626,0.606428,0.0149479,5.4792,0.0056
0.15001,128949.952,4.0444,2.2244,,2.4407,8.1828,0.6067,,,,,8.1828,0.60675,0.0162381,5.4792,0.0056
0.15003,129069.95,4.0466,2.2294,,0.0,8.2031,0.60711,4.0466,2.2294,2.57476,0.388889,8.2031,0.607074,0.0160473,5.4792,0.0056
0.15003,129189.948,4.0484,2.2344,,0.0,8.2233,0.60738,,,,,8.2233,0.607391,0.014605,5.51946,0.0056
0.15002,129309.95,4.0504,2.2394,,,8.2435,0.60764,4.0504,2.2394,2.63158,0.38,8.2435,0.607661,0.0134477,5.51946,0.0056
0.15002,129429.948,4.0525,2.2444,,,8.2638,0.60796,,,,,8.2638,0.607952,0.0140285,5.51946,0.0056
0.15003,129549.949,4.0542,2.2494,,2.5958,8.2841,0.60825,4.0542,2.2494,2.63158,0.38,8.2841,0.608233,0.0134717,5.61352,0.0056
0.15001,129669.949,4.0562,2.2544,,0.0,8.3043,0.60847,,,,,8.3043,0.608498,0.0131213,5.61352,0.0056
0.15001,129789.949,4.058,2.2594,,0.0,8.3246,0.60874,4.058,2.2594,2.66761,0.375,8.3246,0.608758,0.013487,5.61352,0.0056
0.15001,129909.949,4.0598,2.2644,,,8.3449,0.60901,,,,,8.3449,0.609053,0.0139992,5.43661,0.0056
0.15002,130029.948,4.0617,2.2694,,,8.3652,0.60934,4.0617,2.2694,2.79718,0.358444,8.3652,0.609314,0.0125829,5.43661,0.0056
0.15001,130149.948,4.0632,2.2744,0.36499,,8.3855,0.60952,,,,,8.3855,0.609572,0.0123179,5.43661,0.0056
0.15002,130269.948,4.0652,2.2794,0.0,,8.4058,0.60986,,,,,8.4058,0.609807,0.0116675,4.71853,0.0056
0.15001,130389.948,4.0667,2.2844,0.0,,8.4262,0.61005,,,,,8.4262,0.610052,0.0123905,4.71853,0.0056
0.15002,130509.948,4.0682,2.2894,0.0,,8.4465,0.61031,,,,,8.4465,0.610312,0.0132894,4.71853,0.0056
0.15002,130569.949,4.0692,2.2919,,3.0377,8.4567,0.61046,4.0692,2.2919,3.125,0.309333,8.4567,0.61045,0.0135918,4.71853,0.0056