File: Data/processed_data/Cycle 295_discharge.csv
Current(A),Test_Time(s),Voltage(V),Discharge_Capacity(Ah),dV/dQ(V/Ah),dQ/dV(Ah/V),Discharge_Energy(Wh),Power(W),Downsampled Voltage (V),Downsampled Capacity (Ah),dQ/dV from downsampled Voltage (Ah/V),dV/dQ from downsampled Cpacity (V/Ah),Downsampled Energy (Wh),Downsampled Power (W),dP/dE from downsampled Energy (W/Wh),dQ/dV from LEAN (Ah/V),Delta_V (V) in LEAN
-0.15002,14329.463,4.0691,0.40005,,13.23,1.6392,-0.61045,,,,,1.6392,-0.610448,0.00276258,4.20696,0.0049
-0.15004,14509.463,4.0683,0.40755,0.0,,1.6697,-0.61041,,,,,1.6697,-0.610352,0.00364505,4.20696,0.0049
-0.15002,14689.463,4.0677,0.41505,,0.0,1.7002,-0.61024,,,,,1.7002,-0.610231,0.00405526,4.20696,0.0049
-0.15002,14869.464,4.0669,0.42255,0.0,,1.7307,-0.61012,,,,,1.7307,-0.610101,0.0045466,5.12626,0.0049
-0.15002,15049.462,4.0658,0.43006,,0.0,1.7612,-0.60995,,,,,1.7612,-0.609953,0.00420723,5.12626,0.0049
-0.15001,15229.462,4.065,0.43756,0.0,,1.7917,-0.60979,,,,,1.7917,-0.609813,0.00496938,5.12626,0.0049
-0.15002,15409.462,4.0636,0.44506,,,1.8222,-0.60962,,,,,1.8222,-0.60965,0.00655994,5.12626,0.0049
-0.15002,15589.462,4.0624,0.45256,0.0,0.0,1.8527,-0.60944,,,,,1.8527,-0.609424,0.00697076,4.90582,0.0049
-0.15002,15769.462,4.0609,0.46006,,,1.8831,-0.60922,,,,,1.8831,-0.609206,0.00788071,4.90582,0.0049
-0.15001,15949.464,4.0591,0.46756,0.0,0.0,1.9136,-0.60891,,,,,1.9136,-0.608971,0.00786654,4.90582,0.0049
-0.15002,16129.463,4.0576,0.47506,,0.0,1.944,-0.60872,,,,,1.944,-0.608705,0.00912305,4.14071,0.0049
-0.15002,16309.462,4.0555,0.48256,0.0,,1.9745,-0.60841,,,,,1.9745,-0.608429,0.00921992,4.14071,0.0049
-0.15003,16489.465,4.0537,0.49006,0.21581,4.08,2.0049,-0.60818,4.0537,0.49006,-3.75282,-0.267959,2.0049,-0.60814,0.00949035,4.14071,0.0049
-0.15001,16669.463,4.0516,0.49756,,,2.0353,-0.60778,,,,,2.0353,-0.607819,0.0114829,3.57889,0.0049
-0.15002,16849.464,4.0493,0.50507,0.0,0.0,2.0657,-0.60748,,,,,2.0657,-0.607489,0.0100381,3.57889,0.0049
-0.15003,17029.463,4.0472,0.51257,,0.0,2.096,-0.6072,,,,,2.096,-0.607152,0.0109557,3.31461,0.0049
-0.15002,17209.464,4.0448,0.52007,0.0,,2.1264,-0.6068,,,,,2.1264,-0.606829,0.0115304,3.31461,0.0049
-0.15002,17389.463,4.0425,0.52757,0.0,0.0,2.1567,-0.60646,,,,,2.1567,-0.606471,0.0107041,3.11996,0.0049
-0.15002,17569.463,4.0402,0.53507,,,2.187,-0.60611,,,,,2.187,-0.606116,0.0126682,3.11996,0.0049
-0.15002,17749.462,4.0375,0.54257,0.0,,2.2173,-0.60571,,,,,2.2173,-0.605737,0.0127167,2.96916,0.0049
-0.15002,17929.463,4.0351,0.55007,,0.0,2.2476,-0.60535,,,,,2.2476,-0.605332,0.0125759,2.96916,0.0049
-0.15002,18109.463,4.0324,0.55757,0.0,,2.2778,-0.60494,,,,,2.2778,-0.604965,0.0125617,2.86326,0.0049
-0.15002,18289.462,4.03,0.56507,0.0,0.0,2.3081,-0.60458,4.03,0.56507,-2.91126,-0.343778,2.3081,-0.604584,0.012629,2.86326,0.0049
-0.15002,18469.463,4.0273,0.57257,,0.0,2.3383,-0.60418,,,,,2.3383,-0.604173,0.0140899,2.78407,0.0049
-0.15002,18649.463,4.0245,0.58008,0.0,,2.3685,-0.60376,,,,,2.3685,-0.603756,0.0131078,2.78407,0.0049
-0.15001,18829.465,4.0219,0.58758,0.0,0.0,2.3987,-0.60333,4.0219,0.58758,-2.71022,-0.368981,2.3987,-0.603358,0.0131971,2.68674,0.0049
-0.15002,19009.464,4.0189,0.59508,,2.7253,2.4288,-0.60292,,,,,2.4288,-0.602958,0.0138297,2.68674,0.0049
-0.15002,19189.464,4.0163,0.60258,0.0,,2.459,-0.60253,,,,,2.459,-0.602512,0.0147872,2.58412,0.0049
-0.15001,19369.462,4.0132,0.61008,,2.6021,2.4891,-0.60202,,,,,2.4891,-0.602064,0.0155366,2.51781,0.0049
-0.15001,19549.464,4.0103,0.61758,,,2.5192,-0.60159,4.0103,0.61758,-2.53246,-0.395,2.5192,-0.601611,0.0142588,2.51781,0.0049
-0.15004,19729.462,4.0071,0.62508,0.0,,2.5492,-0.60123,,,,,2.5492,-0.601159,0.0154948,2.49635,0.0049
-0.15002,19909.464,4.0042,0.63258,0.40215,2.4473,2.5793,-0.60071,,,,,2.5793,-0.600695,0.0157529,2.49635,0.0049
-0.15002,20089.463,4.001,0.64008,,,2.6093,-0.60023,,,,,2.6093,-0.600232,0.0145921,2.46107,0.0049
-0.15002,20269.465,3.9979,0.64758,0.0,,2.6393,-0.59976,3.9979,0.64758,-2.44024,-0.409795,2.6393,-0.599763,0.0155618,2.41617,0.0049
-0.15001,20449.462,3.9949,0.65509,,0.0,2.6693,-0.59927,,,,,2.6693,-0.599284,0.01638,2.41617,0.0049
-0.15002,20629.464,3.9915,0.66259,0.0,0.0,2.6992,-0.5988,,,,,2.6992,-0.598819,0.0151069,2.38946,0.0049
-0.15002,20809.464,3.9886,0.67009,,2.3997,2.7292,-0.59837,,,,,2.7292,-0.598343,0.015265,2.4076,0.0049
-0.15002,20989.462,3.9853,0.67759,0.0,,2.7591,-0.59787,,,,,2.7591,-0.597885,0.0168987,2.4076,0.0049
-0.15001,21169.463,3.9822,0.68509,,,2.789,-0.59737,3.9822,0.68509,-2.46989,-0.405,2.789,-0.597412,0.0152525,2.43005,0.0049
-0.15002,21349.465,3.9793,0.69259,0.0,0.0,2.8188,-0.59697,,,,,2.8188,-0.596934,0.0154533,2.44719,0.0049
-0.15002,21529.462,3.976,0.70009,,0.0,2.8487,-0.59648,,,,,2.8487,-0.596487,0.0162973,2.44719,0.0049
-0.15001,21709.462,3.9732,0.70759,,2.4648,2.8785,-0.59602,,,,,2.8785,-0.596032,0.014044,2.48679,0.0049
-0.15003,21889.463,3.9702,0.71509,0.0,,2.9083,-0.59565,3.9702,0.71509,-2.46989,-0.405,2.9083,-0.59559,0.0153748,2.48679,0.0049
-0.15002,22069.464,3.9671,0.72259,,,2.938,-0.59514,,,,,2.938,-0.59515,0.014949,2.56697,0.0049
-0.15002,22249.463,3.9643,0.7301,0.0,0.0,2.9678,-0.59472,,,,,2.9678,-0.594705,0.0140472,2.65572,0.0049
-0.15002,22429.463,3.9613,0.7376,0.0,0.0,2.9975,-0.59427,,,,,2.9975,-0.594284,0.0150467,2.65572,0.0049
-0.15001,22609.464,3.9585,0.7451,,2.6366,3.0272,-0.59381,,,,,3.0272,-0.593837,0.0134598,2.73491,0.0049
-0.15002,22789.464,3.9559,0.7526,0.0,,3.0569,-0.59346,,,,,3.0569,-0.593455,0.0130395,2.73491,0.0049
-0.15003,22969.463,3.953,0.7601,,,3.0865,-0.59307,,,,,3.0865,-0.593067,0.0136646,2.82366,0.0049
-0.15001,23149.464,3.9505,0.7676,0.0,0.0,3.1162,-0.59261,,,,,3.1162,-0.592639,0.0142827,2.82366,0.0049
-0.15002,23329.462,3.9477,0.7751,,,3.1458,-0.59223,,,,,3.1458,-0.592252,0.0128229,2.91242,0.0049
-0.15002,23509.464,3.9454,0.7826,0.0,0.0,3.1754,-0.59189,,,,,3.1754,-0.591876,0.0122764,2.91242,0.0049
-0.15003,23689.463,3.9427,0.7901,,,3.205,-0.59152,,,,,3.205,-0.59151,0.0125215,3.00876,0.0049
-0.15002,23869.463,3.9403,0.7976,0.0,0.0,3.2346,-0.59112,,,,,3.2346,-0.591137,0.0120653,3.00876,0.0049
-0.15001,24049.462,3.938,0.8051,,,3.2641,-0.59074,3.938,0.8051,-3.17506,-0.315883,3.2641,-0.590771,0.0125298,3.15955,0.0049
-0.15001,24229.464,3.9356,0.81261,0.0,0.0,3.2936,-0.59038,,,,,3.2936,-0.59041,0.0118063,3.15955,0.0049
-0.15002,24409.464,3.9334,0.82011,,3.288,3.3232,-0.59009,,,,,3.3232,-0.590065,0.0116165,3.36377,0.0049
-0.15002,24589.465,3.931,0.82761,0.0,,3.3527,-0.58973,,,,,3.3527,-0.589733,0.0114316,3.36377,0.0049
-0.15002,24769.462,3.9288,0.83511,,3.3929,3.3821,-0.5894,,,,,3.3821,-0.589399,0.0101355,3.5499,0.0049
-0.15001,24949.463,3.9269,0.84261,0.0,,3.4116,-0.58907,,,,,3.4116,-0.589099,0.0104633,3.5499,0.0049
-0.15002,25129.462,3.9246,0.85011,0.0,0.0,3.441,-0.58877,,,,,3.441,-0.588793,0.0101529,3.73494,0.0049
-0.15002,25309.463,3.9227,0.85761,0.0,,3.4705,-0.58848,,,,,3.4705,-0.588481,0.0103956,3.73494,0.0049
-0.15001,25489.464,3.9208,0.86511,,0.0,3.4999,-0.58816,,,,,3.4999,-0.588192,0.0106251,3.73494,0.0049
-0.15002,25669.463,3.9187,0.87261,0.0,3.706,3.5293,-0.58788,,,,,3.5293,-0.587884,0.00971885,3.92538,0.0049
-0.15002,25849.463,3.917,0.88012,,,3.5587,-0.58763,,,,,3.5587,-0.587608,0.00895414,3.92538,0.0049
-0.15003,26029.463,3.9149,0.88762,0.0,0.0,3.5881,-0.58735,,,,,3.5881,-0.587355,0.00963904,4.13485,0.0049
-0.15003,26209.462,3.9131,0.89512,,,3.6174,-0.58708,,,,,3.6174,-0.587058,0.00939418,4.13485,0.0049
-0.15002,26389.463,3.9115,0.90262,0.0,0.0,3.6468,-0.5868,,,,,3.6468,-0.586779,0.00940819,4.13485,0.0049
-0.15002,26569.463,3.9096,0.91012,,,3.6761,-0.58652,,,,,3.6761,-0.586524,0.00935255,4.24937,0.0049
-0.15002,26749.462,3.908,0.91762,0.0,,3.7054,-0.58628,,,,,3.7054,-0.586243,0.00870439,4.24937,0.0049
-0.15002,26929.462,3.9062,0.92512,,0.0,3.7347,-0.58601,3.9062,0.92512,-4.4318,-0.225714,3.7347,-0.586,0.00805802,4.24937,0.0049
-0.15003,27109.462,3.9043,0.93262,0.0,,3.764,-0.58576,,,,,3.764,-0.585766,0.00844632,4.31469,0.0049
-0.15002,27289.464,3.9029,0.94012,0.0,0.0,3.7933,-0.58551,,,,,3.7933,-0.585497,0.00978304,4.31469,0.0049
-0.15002,27469.463,3.901,0.94762,,,3.8226,-0.58523,,,,,3.8226,-0.585237,0.00786741,4.35626,0.0049
-0.15003,27649.464,3.8995,0.95513,0.0,0.0,3.8518,-0.58504,,,,,3.8518,-0.584991,0.00863985,4.35626,0.0049
-0.15001,27829.463,3.8976,0.96263,,0.0,3.8811,-0.58468,,,,,3.8811,-0.584737,0.00966949,4.35626,0.0049
-0.15002,28009.463,3.8959,0.97013,0.0,,3.9103,-0.58446,,,,,3.9103,-0.58446,0.007773,4.29853,0.0049
-0.15002,28189.462,3.8943,0.97763,,0.0,3.9395,-0.58422,,,,,3.9395,-0.584199,0.0102648,4.29853,0.0049
-0.15001,28369.463,3.8924,0.98513,0.0,0.0,3.9687,-0.5839,,,,,3.9687,-0.583948,0.00824622,4.29853,0.0049
-0.15003,28549.464,3.8908,0.99263,,,3.9979,-0.58374,,,,,3.9979,-0.583696,0.00848052,4.1296,0.0049
-0.15002,28729.463,3.8889,1.0001,0.0,0.0,4.0271,-0.58341,,,,,4.0271,-0.58343,0.0114195,4.1296,0.0049
-0.15002,28909.463,3.8871,1.0076,,0.0,4.0562,-0.58314,,,,,4.0562,-0.58313,0.00866467,4.1296,0.0049
-0.15003,29089.462,3.8854,1.0151,0.0,,4.0854,-0.58293,,,,,4.0854,-0.582871,0.00930959,3.89961,0.0049
-0.15002,29269.463,3.8833,1.0226,,4.0371,4.1145,-0.58257,,,,,4.1145,-0.58259,0.010117,3.89961,0.0049
-0.15002,29449.463,3.8815,1.0301,0.0,,4.1437,-0.5823,,,,,4.1437,-0.58229,0.0102503,3.89961,0.0049
-0.15002,29629.462,3.8793,1.0376,,0.0,4.1728,-0.58197,,,,,4.1728,-0.582002,0.0104655,3.62478,0.0049
-0.15003,29809.464,3.8774,1.0451,0.0,0.0,4.2018,-0.58173,,,,,4.2018,-0.581675,0.0113373,3.62478,0.0049
-0.15003,29989.465,3.8751,1.0526,,,4.2309,-0.58138,,,,,4.2309,-0.581356,0.0119614,3.35421,0.0049
-0.15002,30169.464,3.8729,1.0601,,,4.26,-0.58101,,,,,4.26,-0.581012,0.0110266,3.35421,0.0049
-0.15002,30349.463,3.8707,1.0676,0.0,0.0,4.289,-0.58068,,,,,4.289,-0.580666,0.0123759,3.11138,0.0049
-0.15002,30529.463,3.868,1.0751,,3.2215,4.318,-0.58028,,,,,4.318,-0.580303,0.0129934,3.11138,0.0049
-0.15001,30709.463,3.8657,1.0826,0.0,,4.3471,-0.57989,3.8657,1.0826,-2.86935,-0.349333,4.3471,-0.579901,0.0136594,2.8814,0.0049
-0.15002,30889.462,3.8629,1.0901,,,4.376,-0.57951,,,,,4.376,-0.579523,0.0137242,2.8814,0.0049
-0.15003,31069.464,3.8601,1.0976,0.0,0.0,4.405,-0.57913,,,,,4.405,-0.579098,0.0146881,2.64616,0.0049
-0.15002,31249.462,3.8573,1.1051,,,4.4339,-0.57867,,,,,4.4339,-0.578657,0.0152931,2.64616,0.0049
-0.15003,31429.463,3.8541,1.1126,0.0,0.0,4.4629,-0.57823,3.8541,1.1126,-2.41034,-0.415,4.4629,-0.578219,0.0155543,2.45577,0.0049
-0.15001,31609.463,3.8512,1.1201,0.0,0.0,4.4918,-0.57772,,,,,4.4918,-0.577735,0.0159919,2.31884,0.0049
-0.15002,31789.462,3.848,1.1276,,2.3431,4.5206,-0.57728,,,,,4.5206,-0.577266,0.0167483,2.31884,0.0049
-0.15002,31969.464,3.8444,1.1351,0.0,,4.5495,-0.57674,,,,,4.5495,-0.576773,0.0178018,2.23009,0.0049
-0.15002,32149.464,3.8411,1.1427,0.0,0.0,4.5783,-0.57624,,,,,4.5783,-0.576249,0.0183299,2.19907,0.0049
-0.15002,32329.464,3.8377,1.1502,,,4.6071,-0.57573,3.8377,1.1502,-2.25136,-0.444286,4.6071,-0.575733,0.0181078,2.19907,0.0049
-0.15001,32509.465,3.8344,1.1577,0.0,,4.6359,-0.5752,3.8344,1.1577,-2.23145,-0.448571,4.6359,-0.57521,0.0179645,2.22152,0.0049
-0.15002,32689.462,3.8308,1.1652,0.0,0.0,4.6646,-0.5747,,,,,4.6646,-0.574727,0.0172335,2.27068,0.0049
-0.15003,32869.463,3.8276,1.1727,,,4.6934,-0.57425,,,,,4.6934,-0.574208,0.0173962,2.27068,0.0049
-0.15002,33049.464,3.8241,1.1802,0.0,0.0,4.7221,-0.57369,,,,,4.7221,-0.573711,0.0175972,2.31884,0.0049
-0.15002,33229.462,3.821,1.1877,0.0,0.0,4.7507,-0.57323,,,,,4.7507,-0.573228,0.0161294,2.38946,0.0049
-0.15001,33409.464,3.818,1.1952,,2.3555,4.7794,-0.57274,3.818,1.1952,-2.41034,-0.415,4.7794,-0.572742,0.0166881,2.38946,0.0049
-0.15002,33589.462,3.8147,1.2027,0.0,,4.808,-0.57228,,,,,4.808,-0.572299,0.0155095,2.48778,0.0049
-0.15003,33769.464,3.8119,1.2102,0.0,0.0,4.8366,-0.5719,,,,,4.8366,-0.571861,0.0151368,2.55839,0.0049
-0.15002,33949.464,3.809,1.2177,,2.5153,4.8652,-0.57143,,,,,4.8652,-0.571406,0.0163465,2.55839,0.0049
-0.15002,34129.462,3.8059,1.2252,0.0,0.0,4.8938,-0.57096,3.8059,1.2252,-2.63523,-0.38,4.8938,-0.570967,0.0145819,2.60656,0.0049
-0.15002,34309.462,3.8032,1.2327,,2.646,4.9223,-0.57056,,,,,4.9223,-0.570543,0.0144768,2.60656,0.0049
-0.15002,34489.464,3.8002,1.2402,0.0,,4.9508,-0.57011,,,,,4.9508,-0.57014,0.0147417,2.67287,0.0049
-0.15003,34669.462,3.7975,1.2477,0.0,,4.9793,-0.56974,3.7975,1.2477,-2.82297,-0.356,4.9793,-0.569732,0.0146939,2.75736,0.0049
-0.15002,34849.462,3.795,1.2552,,0.0,5.0078,-0.56933,,,,,5.0078,-0.569308,0.0155171,2.75736,0.0049
-0.15003,35029.462,3.7922,1.2627,0.0,,5.0362,-0.56894,,,,,5.0362,-0.568908,0.0132052,2.85037,0.0049
-0.15003,35209.464,3.7897,1.2702,,0.0,5.0647,-0.56857,3.7897,1.2702,-2.89747,-0.345333,5.0647,-0.568536,0.0135123,2.85037,0.0049
-0.15001,35389.463,3.787,1.2777,0.0,,5.0931,-0.56809,,,,,5.0931,-0.568124,0.0152484,2.9253,0.0049
-0.15001,35569.464,3.7844,1.2852,,0.0,5.1215,-0.5677,,,,,5.1215,-0.567728,0.0125212,2.9253,0.0049
-0.15003,35749.462,3.7821,1.2927,0.0,0.0,5.1499,-0.56743,3.7821,1.2927,-2.97619,-0.336,5.1499,-0.567375,0.0125039,3.00974,0.0049
-0.15002,35929.464,3.7794,1.3002,,,5.1782,-0.56699,,,,,5.1782,-0.567017,0.0137325,3.00974,0.0049
-0.15002,36109.462,3.7771,1.3077,0.0,0.0,5.2066,-0.56664,,,,,5.2066,-0.566626,0.0128597,3.06321,0.0049
-0.15002,36289.463,3.7745,1.3152,,,5.2349,-0.56625,,,,,5.2349,-0.566254,0.0132102,3.06321,0.0049
-0.15002,36469.463,3.772,1.3227,0.0,0.0,5.2632,-0.56588,,,,,5.2632,-0.565886,0.0131813,3.07179,0.0049
-0.15001,36649.465,3.7697,1.3302,,,5.2915,-0.56549,3.7697,1.3302,-2.98996,-0.334667,5.2915,-0.565511,0.0130995,3.07179,0.0049
-0.15003,36829.463,3.7671,1.3377,0.0,,5.3197,-0.56518,,,,,5.3197,-0.565156,0.0123353,3.04934,0.0049
-0.15002,37009.462,3.7648,1.3452,,0.0,5.348,-0.5648,,,,,5.348,-0.564797,0.0129507,3.04934,0.0049
-0.15003,37189.462,3.7622,1.3527,0.0,,5.3762,-0.56444,3.7622,1.3527,-3.08736,-0.324,5.3762,-0.564426,0.0128218,3.0312,0.0049
-0.15001,37369.464,3.76,1.3602,,0.0,5.4044,-0.56404,,,,,5.4044,-0.564042,0.0130549,3.0312,0.0049
-0.15001,37549.462,3.7574,1.3677,0.0,,5.4326,-0.56365,,,,,5.4326,-0.563699,0.0118311,3.05791,0.0049
-0.15003,37729.462,3.7549,1.3752,,0.0,5.4608,-0.56335,,,,,5.4608,-0.563337,0.0128565,3.05791,0.0049
-0.15001,37909.462,3.7526,1.3827,,,5.489,-0.56293,,,,,5.489,-0.562956,0.0142906,3.09424,0.0049
-0.15002,38089.462,3.75,1.3902,0.0,0.0,5.5171,-0.56258,3.75,1.3902,-3.04878,-0.328,5.5171,-0.562597,0.0127102,3.09424,0.0049
-0.15002,38269.462,3.7477,1.3977,,,5.5452,-0.56223,,,,,5.5452,-0.562218,0.0132805,3.08992,0.0049
-0.15002,38449.462,3.7453,1.4052,0.0,0.0,5.5733,-0.56187,,,,,5.5733,-0.561857,0.0130269,3.08992,0.0049
-0.15003,38629.462,3.7427,1.4127,,,5.6014,-0.56152,,,,,5.6014,-0.56151,0.012358,3.02263,0.0049
-0.15002,38809.462,3.7404,1.4202,0.0,0.0,5.6295,-0.56113,,,,,5.6295,-0.561123,0.0140705,3.02263,0.0049
-0.15002,38989.462,3.7377,1.4277,,,5.6575,-0.56073,3.7377,1.4277,-3.03854,-0.329111,5.6575,-0.560757,0.0129727,2.97773,0.0049
-0.15003,39169.462,3.7354,1.4352,0.0,0.0,5.6855,-0.56042,,,,,5.6855,-0.560375,0.0133612,2.97773,0.0049
-0.15001,39349.462,3.7329,1.4427,,,5.7136,-0.55997,,,,,5.7136,-0.559987,0.0143648,2.99161,0.0049
-0.15002,39529.463,3.7302,1.4502,0.0,0.0,5.7415,-0.5596,3.7302,1.4502,-3.01292,-0.332,5.7415,-0.559619,0.0122434,2.99161,0.0049
-0.15002,39709.462,3.7279,1.4577,,,5.7695,-0.55926,,,,,5.7695,-0.559246,0.0134897,3.04077,0.0049
-0.15002,39889.463,3.7252,1.4652,0.0,0.0,5.7975,-0.55885,,,,,5.7975,-0.558866,0.0138394,3.04077,0.0049
-0.15001,40069.463,3.723,1.4727,,,5.8254,-0.55849,,,,,5.8254,-0.558493,0.0126614,3.07179,0.0049
-0.15002,40249.462,3.7203,1.4802,0.0,0.0,5.8533,-0.55812,,,,,5.8533,-0.558135,0.0131902,3.07179,0.0049
-0.15001,40429.464,3.7179,1.4877,,3.0418,5.8812,-0.55772,3.7179,1.4877,-3.08736,-0.324,5.8812,-0.557757,0.0133657,3.08036,0.0049
-0.15002,40609.463,3.7155,1.4952,0.0,,5.9091,-0.5574,,,,,5.9091,-0.557399,0.0132228,3.08036,0.0049
-0.15002,40789.464,3.7129,1.5027,,3.0426,5.937,-0.55701,,,,,5.937,-0.557032,0.0139191,3.08036,0.0049
-0.15002,40969.464,3.7106,1.5102,0.0,,5.9648,-0.55666,,,,,5.9648,-0.556649,0.0137968,3.08036,0.0049
-0.15003,41149.462,3.708,1.5177,,3.083,5.9926,-0.55631,,,,,5.9926,-0.556283,0.0132076,3.08893,0.0049
-0.15002,41329.463,3.7058,1.5252,0.0,,6.0204,-0.55594,3.7058,1.5252,-3.125,-0.32,6.0204,-0.555918,0.013421,3.08893,0.0049
-0.15002,41509.462,3.7032,1.5327,0.32413,3.1208,6.0482,-0.55555,,,,,6.0482,-0.555561,0.0117576,3.12853,0.0049
-0.15003,41689.462,3.701,1.5402,,,6.076,-0.55526,,,,,6.076,-0.555227,0.0117895,3.12853,0.0049
-0.15002,41869.463,3.6985,1.5477,0.0,3.1685,6.1037,-0.55485,,,,,6.1037,-0.554885,0.0134277,3.20014,0.0049
-0.15002,42049.464,3.6961,1.5552,,,6.1315,-0.55449,,,,,6.1315,-0.554517,0.0126009,3.20014,0.0049
-0.15002,42229.463,3.694,1.5627,0.31771,0.0,6.1592,-0.55417,3.694,1.5627,-3.24785,-0.308,6.1592,-0.554156,0.0135147,3.27501,0.0049
-0.15001,42409.464,3.6916,1.5702,,0.0,6.1869,-0.55378,,,,,6.1869,-0.55382,0.0123163,3.27501,0.0049
-0.15003,42589.462,3.6895,1.5777,0.0,,6.2146,-0.55354,,,,,6.2146,-0.553486,0.0118404,3.35852,0.0049
-0.15002,42769.463,3.6872,1.5852,,0.0,6.2422,-0.55315,,,,,6.2422,-0.55315,0.0128548,3.35852,0.0049
-0.15003,42949.462,3.6849,1.5927,0.0,,6.2699,-0.55285,,,,,6.2699,-0.552831,0.0108214,3.47497,0.0049
-0.15004,43129.463,3.6828,1.6002,,,6.2975,-0.55257,,,,,6.2975,-0.552504,0.0113484,3.47497,0.0049
-0.15002,43309.463,3.6806,1.6077,0.0,0.0,6.3251,-0.55216,,,,,6.3251,-0.55218,0.0123176,3.47497,0.0049
-0.15002,43489.464,3.6784,1.6152,,3.4681,6.3527,-0.55183,,,,,6.3527,-0.551843,0.0115131,3.56273,0.0049
-0.15002,43669.464,3.6765,1.6227,0.0,,6.3803,-0.55155,,,,,6.3803,-0.551529,0.011356,3.56273,0.0049
-0.15003,43849.462,3.6742,1.6302,,0.0,6.4079,-0.55124,3.6742,1.6302,-3.65476,-0.273939,6.4079,-0.551217,0.0111635,3.65481,0.0049
-0.15003,44029.462,3.6723,1.6377,0.0,0.0,6.4354,-0.55096,,,,,6.4354,-0.550914,0.0113156,3.65481,0.0049
-0.15002,44209.464,3.6702,1.6452,,,6.463,-0.5506,3.6702,1.6452,-3.79869,-0.263333,6.463,-0.550608,0.0104376,3.79797,0.0049
-0.15002,44389.463,3.6681,1.6527,0.0,3.7305,6.4905,-0.55029,,,,,6.4905,-0.550311,0.0107112,3.79797,0.0049
-0.15002,44569.462,3.6663,1.6602,,,6.518,-0.55002,3.6663,1.6602,-3.79869,-0.263333,6.518,-0.550011,0.0105085,3.79797,0.0049
-0.15002,44749.462,3.6642,1.6677,0.0,0.0,6.5455,-0.5497,,,,,6.5455,-0.54972,0.0102982,3.9125,0.0049
-0.15003,44929.462,3.6623,1.6752,0.0,,6.573,-0.54945,3.6623,1.6752,-3.85823,-0.259634,6.573,-0.549452,0.0096432,3.9125,0.0049
-0.15002,45109.464,3.6605,1.6827,,0.0,6.6004,-0.54915,,,,,6.6004,-0.54916,0.0109204,4.02697,0.0049
-0.15002,45289.462,3.6585,1.6902,0.0,,6.6279,-0.54885,,,,,6.6279,-0.54889,0.00958865,4.02697,0.0049
-0.15004,45469.463,3.6569,1.6977,,0.0,6.6553,-0.54868,,,,,6.6553,-0.548613,0.0106138,4.02697,0.0049
-0.15002,45649.464,3.6549,1.7052,0.0,,6.6828,-0.54831,,,,,6.6828,-0.548329,0.0112323,4.16488,0.0049
-0.15002,45829.463,3.6533,1.7127,,4.1029,6.7102,-0.54807,,,,,6.7102,-0.548045,0.0090487,4.16488,0.0049
-0.15003,46009.465,3.6513,1.7202,0.0,,6.7376,-0.5478,,,,,6.7376,-0.547791,0.0098692,4.16488,0.0049
-0.15003,46189.464,3.6496,1.7277,,0.0,6.7649,-0.54755,,,,,6.7649,-0.547531,0.00960071,4.30611,0.0049
-0.15002,46369.463,3.648,1.7352,0.0,,6.7923,-0.54727,,,,,6.7923,-0.547257,0.0093112,4.30611,0.0049
-0.15002,46549.463,3.6461,1.7427,,0.0,6.8197,-0.54699,3.6461,1.7427,-4.39693,-0.228571,6.8197,-0.547009,0.00948795,4.44402,0.0049
-0.15002,46729.463,3.6445,1.7502,0.0,,6.847,-0.54675,,,,,6.847,-0.546734,0.00985553,4.44402,0.0049
-0.15002,46909.463,3.6426,1.7577,0.0,,6.8743,-0.54646,,,,,6.8743,-0.546484,0.00929227,4.44402,0.0049
-0.15003,47089.463,3.641,1.7652,,0.0,6.9017,-0.54626,,,,,6.9017,-0.546247,0.00881682,4.5242,0.0049
-0.15003,47269.462,3.6395,1.7727,0.0,,6.929,-0.54603,,,,,6.929,-0.545975,0.0107034,4.5242,0.0049
-0.15002,47449.463,3.6377,1.7802,,,6.9563,-0.54573,,,,,6.9563,-0.545738,0.008512,4.5242,0.0049
-0.15003,47629.463,3.6362,1.7877,,0.0,6.9835,-0.54554,,,,,6.9835,-0.545489,0.00877668,4.54036,0.0049
-0.15002,47809.463,3.6344,1.7952,0.0,,7.0108,-0.54523,,,,,7.0108,-0.545239,0.00979277,4.54036,0.0049
-0.15003,47989.464,3.6327,1.8027,0.0,,7.0381,-0.54501,,,,,7.0381,-0.544993,0.00804964,4.54036,0.0049
-0.15001,48169.464,3.6313,1.8102,,0.0,7.0653,-0.54473,,,,,7.0653,-0.544748,0.00915111,4.58853,0.0049
-0.15002,48349.464,3.6295,1.8177,,,7.0925,-0.5445,,,,,7.0925,-0.544516,0.00885049,4.58853,0.0049
-0.15002,48529.463,3.6281,1.8252,0.0,,7.1198,-0.54429,,,,,7.1198,-0.544261,0.00906608,4.58853,0.0049
-0.15002,48709.462,3.6263,1.8327,,0.0,7.147,-0.54402,,,,,7.147,-0.544021,0.00941969,4.69215,0.0049
-0.15001,48889.462,3.6247,1.8402,0.0,,7.1742,-0.54374,,,,,7.1742,-0.543785,0.00865062,4.69215,0.0049
-0.15002,49069.462,3.6233,1.8477,,4.8148,7.2014,-0.54357,,,,,7.2014,-0.543548,0.00895263,4.69215,0.0049
-0.15003,49249.463,3.6215,1.8552,0.0,,7.2285,-0.54333,,,,,7.2285,-0.543318,0.00876807,4.7413,0.0049
-0.15003,49429.462,3.62,1.8627,,0.0,7.2557,-0.54311,,,,,7.2557,-0.543081,0.00874515,4.7413,0.0049
-0.15001,49609.462,3.6185,1.8703,0.0,4.6723,7.2828,-0.54281,,,,,7.2828,-0.542843,0.00855998,4.7413,0.0049
-0.15002,49789.462,3.6168,1.8778,,,7.31,-0.54259,,,,,7.31,-0.542617,0.00862748,4.68259,0.0049
-0.15002,49969.464,3.6153,1.8853,0.0,0.0,7.3371,-0.54237,,,,,7.3371,-0.542361,0.0100816,4.68259,0.0049
-0.15002,50149.462,3.6135,1.8928,0.21263,,7.3642,-0.5421,,,,,7.3642,-0.542116,0.00926314,4.68259,0.0049
-0.15003,50329.462,3.6121,1.9003,,0.0,7.3913,-0.54192,,,,,7.3913,-0.54187,0.00952862,4.68259,0.0049
-0.15002,50509.464,3.6103,1.9078,0.0,,7.4184,-0.54162,,,,,7.4184,-0.541614,0.00964905,4.59809,0.0049
-0.15002,50689.463,3.6087,1.9153,,0.0,7.4455,-0.54138,,,,,7.4455,-0.541385,0.00756103,4.59809,0.0049
-0.15003,50869.465,3.6072,1.9228,0.0,0.0,7.4725,-0.54119,,,,,7.4725,-0.541152,0.00915048,4.59809,0.0049
-0.15001,51049.464,3.6055,1.9303,,,7.4996,-0.54086,,,,,7.4996,-0.5409,0.00918674,4.52322,0.0049
-0.15002,51229.462,3.6039,1.9378,0.219,0.0,7.5266,-0.54066,,,,,7.5266,-0.540648,0.00868687,4.52322,0.0049
-0.15002,51409.462,3.6021,1.9453,,0.0,7.5536,-0.54039,3.6021,1.9453,-4.54699,-0.22,7.5536,-0.540402,0.00954804,4.42688,0.0049
-0.15002,51589.464,3.6006,1.9528,0.0,,7.5807,-0.54016,,,,,7.5807,-0.540152,0.00919062,4.42688,0.0049
-0.15002,51769.463,3.5988,1.9603,,0.0,7.6077,-0.53989,,,,,7.6077,-0.539888,0.00988215,4.42688,0.0049
-0.15002,51949.462,3.597,1.9678,0.0,0.0,7.6346,-0.53962,,,,,7.6346,-0.539643,0.00912478,4.27078,0.0049
-0.15003,52129.462,3.5954,1.9753,0.0,,7.6616,-0.53942,,,,,7.6616,-0.539372,0.0100686,4.27078,0.0049
-0.15002,52309.462,3.5934,1.9828,0.22807,0.0,7.6886,-0.53908,,,,,7.6886,-0.5391,0.0104792,4.27078,0.0049
-0.15002,52489.464,3.5919,1.9903,,0.0,7.7155,-0.53886,,,,,7.7155,-0.53883,0.00925779,4.1019,0.0049
-0.15002,52669.465,3.5899,1.9978,0.0,,7.7425,-0.53856,3.5899,1.9978,-4.16667,-0.24,7.7425,-0.538563,0.0103155,4.1019,0.0049
-0.15003,52849.465,3.5881,2.0053,,4.1984,7.7694,-0.53832,,,,,7.7694,-0.538314,0.00965164,4.1019,0.0049
-0.15002,53029.464,3.5864,2.0128,0.0,,7.7963,-0.53803,,,,,7.7963,-0.538022,0.0111124,4.00977,0.0049
-0.15002,53209.463,3.5844,2.0203,,0.0,7.8232,-0.53773,,,,,7.8232,-0.537742,0.0111383,4.00977,0.0049
-0.15003,53389.462,3.5826,2.0278,,,7.8501,-0.5375,,,,,7.8501,-0.537447,0.0106116,4.00977,0.0049
-0.15002,53569.462,3.5806,2.0353,0.0,0.0,7.8769,-0.53716,,,,,7.8769,-0.537152,0.0110712,3.91681,0.0049
-0.15001,53749.462,3.5787,2.0428,,,7.9038,-0.53684,,,,,7.9038,-0.536879,0.00984837,3.91681,0.0049
-0.15002,53929.463,3.5769,2.0503,0.0,0.0,7.9306,-0.53661,,,,,7.9306,-0.536594,0.0110927,3.85471,0.0049
-0.15002,54109.464,3.5748,2.0578,,,7.9574,-0.53629,,,,,7.9574,-0.536297,0.0112069,3.85471,0.0049
-0.15001,54289.463,3.573,2.0653,,3.8527,7.9843,-0.53599,,,,,7.9843,-0.535989,0.0115453,3.85471,0.0049
-0.15002,54469.462,3.5708,2.0728,0.0,,8.011,-0.53569,,,,,8.011,-0.535708,0.0106695,3.767,0.0049
-0.15004,54649.465,3.5689,2.0803,,0.0,8.0378,-0.53548,,,,,8.0378,-0.535429,0.0100259,3.767,0.0049
-0.15002,54829.462,3.567,2.0878,0.0,0.0,8.0646,-0.53512,,,,,8.0646,-0.53512,0.0124499,3.66006,0.0049
-0.15002,55009.465,3.5648,2.0953,,,8.0913,-0.53479,,,,,8.0913,-0.534814,0.0112451,3.66006,0.0049
-0.15002,55189.462,3.5629,2.1028,,,8.1181,-0.53451,,,,,8.1181,-0.534493,0.0116498,3.5446,0.0049
-0.15001,55369.463,3.5606,2.1103,0.0,0.0,8.1448,-0.53413,,,,,8.1448,-0.534177,0.0127773,3.5446,0.0049
-0.15003,55549.464,3.5586,2.1178,,,8.1715,-0.5339,,,,,8.1715,-0.533852,0.0119523,3.5446,0.0049
-0.15002,55729.462,3.5565,2.1253,0.0,0.0,8.1982,-0.53355,,,,,8.1982,-0.533518,0.0125036,3.46541,0.0049
-0.15002,55909.464,3.5542,2.1328,,,8.2248,-0.5332,3.5542,2.1328,-3.44381,-0.290424,8.2248,-0.533207,0.0113379,3.46541,0.0049
-0.15003,56089.462,3.5521,2.1403,0.0,,8.2515,-0.53292,,,,,8.2515,-0.532879,0.0120845,3.37764,0.0049
-0.15002,56269.463,3.5498,2.1478,,0.0,8.2781,-0.53254,3.5498,2.1478,-3.34491,-0.299152,8.2781,-0.532545,0.0127434,3.37764,0.0049
-0.15002,56449.462,3.5476,2.1553,0.0,,8.3047,-0.53221,,,,,8.3047,-0.532208,0.0118205,3.25688,0.0049
-0.15002,56629.463,3.5453,2.1628,,0.0,8.3313,-0.53187,,,,,8.3313,-0.531871,0.0134008,3.25688,0.0049
-0.15001,56809.462,3.5429,2.1703,,3.2691,8.3579,-0.53147,,,,,8.3579,-0.531532,0.0131537,3.1767,0.0049
-0.15002,56989.462,3.5407,2.1778,0.0,,8.3845,-0.53118,,,,,8.3845,-0.53117,0.0130759,3.1767,0.0049
-0.15003,57169.462,3.5382,2.1853,,3.2238,8.411,-0.53084,3.5382,2.1853,-3.20513,-0.312,8.411,-0.530818,0.0137833,3.17769,0.0049
-0.15001,57349.464,3.536,2.1928,0.0,,8.4376,-0.53044,,,,,8.4376,-0.530466,0.0129596,3.17769,0.0049
-0.15002,57529.464,3.5334,2.2003,0.31116,0.0,8.4641,-0.53008,,,,,8.4641,-0.530102,0.0134946,3.19156,0.0049
-0.15002,57709.462,3.5311,2.2078,,0.0,8.4906,-0.52974,,,,,8.4906,-0.529743,0.0132258,3.19156,0.0049
-0.15002,57889.462,3.5288,2.2153,0.0,,8.5171,-0.52939,,,,,8.5171,-0.529393,0.0134807,3.19156,0.0049
-0.15002,58069.465,3.5263,2.2228,,0.0,8.5435,-0.52902,3.5263,2.2228,-3.16557,-0.316,8.5435,-0.529037,0.0142628,3.16911,0.0049
-0.15002,58249.462,3.5241,2.2303,0.0,,8.57,-0.52869,,,,,8.57,-0.528649,0.0139251,3.16911,0.0049
-0.15001,58429.464,3.5216,2.2378,0.0,0.0,8.5964,-0.52828,,,,,8.5964,-0.528295,0.0132973,3.1371,0.0049
-0.15002,58609.462,3.5192,2.2453,,,8.6228,-0.52795,,,,,8.6228,-0.527959,0.0125344,3.1371,0.0049
-0.15001,58789.462,3.5169,2.2528,0.0,,8.6492,-0.52757,,,,,8.6492,-0.527593,0.014288,3.15098,0.0049
-0.15001,58969.462,3.5144,2.2603,,0.0,8.6756,-0.5272,3.5144,2.2603,-3.125,-0.32,8.6756,-0.52723,0.0133492,3.15098,0.0049
-0.15002,59149.463,3.5122,2.2678,0.0,,8.7019,-0.5269,,,,,8.7019,-0.526858,0.0138337,3.1701,0.0049
-0.15,59329.462,3.5096,2.2753,,0.0,8.7283,-0.52644,,,,,8.7283,-0.526509,0.0137808,3.1701,0.0049
-0.15002,59509.464,3.5073,2.2828,0.0,,8.7546,-0.52617,,,,,8.7546,-0.526149,0.0129115,3.10281,0.0049
-0.15002,59689.462,3.5049,2.2903,,0.0,8.7809,-0.52581,,,,,8.7809,-0.52579,0.0142926,3.10281,0.0049
-0.15002,59869.463,3.5023,2.2978,,,8.8071,-0.52542,3.5023,2.2978,-3.04878,-0.328,8.8071,-0.525436,0.0137382,3.00876,0.0049
-0.15002,60049.464,3.5,2.3053,0.0,0.0,8.8334,-0.52507,,,,,8.8334,-0.525051,0.0143994,3.00876,0.0049
-0.15002,60229.462,3.4974,2.3128,,,8.8597,-0.52468,,,,,8.8597,-0.524677,0.0144012,2.95201,0.0049
-0.15003,60409.463,3.4949,2.3203,0.0,,8.8859,-0.52434,,,,,8.8859,-0.524317,0.0133001,2.95201,0.0049
-0.15003,60589.462,3.4924,2.3278,,,8.9121,-0.52396,,,,,8.9121,-0.523936,0.0145872,2.90384,0.0049
-0.15002,60769.463,3.4897,2.3353,0.0,0.0,8.9383,-0.52352,3.4897,2.3353,-2.83665,-0.352889,8.9383,-0.52354,0.0158205,2.90384,0.0049
-0.15001,60949.463,3.4871,2.3428,,,8.9644,-0.5231,,,,,8.9644,-0.523123,0.0151656,2.81509,0.0049
-0.15002,61129.462,3.4844,2.3503,0.0,0.0,8.9906,-0.52273,,,,,8.9906,-0.522713,0.0160049,2.70389,0.0049
-0.15002,61309.463,3.4815,2.3578,0.0,,9.0167,-0.52229,3.4815,2.3578,-2.6704,-0.374667,9.0167,-0.522321,0.0151957,2.70389,0.0049
-0.15003,61489.462,3.4789,2.3653,,0.0,9.0428,-0.52194,,,,,9.0428,-0.5219,0.0164644,2.60656,0.0049
-0.15001,61669.462,3.4759,2.3728,0.0,0.0,9.0689,-0.52142,,,,,9.0689,-0.521454,0.0182903,2.60656,0.0049
-0.15002,61849.462,3.4729,2.3803,0.37906,2.5903,9.095,-0.521,,,,,9.095,-0.521007,0.0164378,2.54452,0.0049
-0.15002,62029.463,3.4701,2.3878,,,9.121,-0.52058,3.4701,2.3878,-2.53246,-0.395,9.121,-0.520572,0.0170686,2.54452,0.0049
-0.15003,62209.465,3.467,2.3953,0.0,,9.147,-0.52015,,,,,9.147,-0.520133,0.0178054,2.50924,0.0049
-0.15002,62389.462,3.464,2.4028,,0.0,9.173,-0.51967,,,,,9.173,-0.519671,0.0172132,2.48778,0.0049
-0.15002,62569.464,3.4611,2.4103,0.0,0.0,9.199,-0.51923,,,,,9.199,-0.519217,0.017012,2.48778,0.0049
-0.15002,62749.462,3.4579,2.4178,,2.4672,9.2249,-0.51875,3.4579,2.4178,-2.44193,-0.41,9.2249,-0.518767,0.0178762,2.43005,0.0049
-0.15001,62929.463,3.4549,2.4253,0.0,,9.2509,-0.51827,,,,,9.2509,-0.518288,0.0180539,2.35844,0.0049
-0.15002,63109.463,3.4516,2.4328,,,9.2768,-0.51781,,,,,9.2768,-0.517809,0.0188744,2.35844,0.0049
-0.15002,63289.462,3.4483,2.4403,0.0,0.0,9.3026,-0.51731,,,,,9.3026,-0.517316,0.0189929,2.31884,0.0049
-0.15001,63469.462,3.4452,2.4478,,0.0,9.3285,-0.51681,,,,,9.3285,-0.516821,0.0189258,2.32742,0.0049
-0.15001,63649.464,3.4418,2.4553,,,9.3543,-0.5163,3.4418,2.4553,-2.29324,-0.436667,9.3543,-0.516347,0.0189028,2.32742,0.0049
-0.15002,63829.464,3.4386,2.4628,0.0,0.0,9.3801,-0.51586,3.4386,2.4628,-2.38551,-0.419524,9.3801,-0.515853,0.0189733,2.41518,0.0049
-0.15002,64009.462,3.4355,2.4703,,0.0,9.4059,-0.51539,,,,,9.4059,-0.515383,0.0179948,2.63228,0.0049
-0.15003,64189.463,3.4324,2.4778,,2.4682,9.4317,-0.51496,,,,,9.4317,-0.514945,0.0165814,2.63228,0.0049
-0.15002,64369.463,3.4297,2.4853,0.0,,9.4574,-0.51452,3.4297,2.4853,-2.80144,-0.359556,9.4574,-0.514527,0.0157234,2.94344,0.0049
-0.15003,64549.462,3.427,2.4928,,,9.4831,-0.51415,,,,,9.4831,-0.514123,0.0149469,2.94344,0.0049
-0.15001,64729.464,3.4247,2.5003,0.0,0.0,9.5088,-0.51374,,,,,9.5088,-0.513753,0.0133226,3.27501,0.0049
-0.15002,64909.464,3.4223,2.5078,,3.2244,9.5345,-0.51341,,,,,9.5345,-0.513436,0.0119017,3.27501,0.0049
-0.15003,65089.464,3.4202,2.5153,0.0,,9.5602,-0.51313,,,,,9.5602,-0.513119,0.0124707,3.56377,0.0049
-0.15001,65269.462,3.4183,2.5228,,0.0,9.5858,-0.51278,3.4183,2.5228,-3.65476,-0.273939,9.5858,-0.512793,0.0130101,3.56377,0.0049
-0.15001,65449.463,3.4161,2.5303,0.0,0.0,9.6114,-0.51245,,,,,9.6114,-0.512479,0.0115983,3.56377,0.0049
-0.15002,65629.465,3.4143,2.5378,,,9.6371,-0.51221,3.4143,2.5378,-3.75,-0.266667,9.6371,-0.512178,0.0114563,3.75936,0.0049
-0.15001,65809.463,3.4122,2.5453,0.0,,9.6627,-0.51186,,,,,9.6627,-0.511894,0.0113133,3.75936,0.0049
-0.15002,65989.463,3.4103,2.5528,,0.0,9.6882,-0.51161,3.4103,2.5528,-3.75,-0.266667,9.6882,-0.511609,0.0104894,3.76274,0.0049
-0.15002,66169.463,3.4084,2.5603,0.0,,9.7138,-0.51133,,,,,9.7138,-0.511329,0.0120554,3.76274,0.0049
-0.15003,66349.464,3.4063,2.5678,,0.0,9.7394,-0.51105,3.4063,2.5678,-3.77528,-0.264908,9.7394,-0.511032,0.0123817,3.76274,0.0049
-0.15002,66529.462,3.4045,2.5753,0.0,,9.7649,-0.51074,,,,,9.7649,-0.510712,0.0121212,3.6782,0.0049
-0.15002,66709.464,3.4024,2.5828,0.0,,9.7904,-0.51043,,,,,9.7904,-0.510394,0.0124545,3.6782,0.0049
-0.15001,66889.463,3.4002,2.5903,,0.0,9.816,-0.51006,,,,,9.816,-0.510095,0.011655,3.5103,0.0049
-0.15002,67069.464,3.3982,2.5978,0.0,,9.8415,-0.5098,3.3982,2.5978,-3.49951,-0.286061,9.8415,-0.509791,0.011496,3.5103,0.0049
-0.15002,67249.462,3.3959,2.6053,,0.0,9.8669,-0.50945,,,,,9.8669,-0.509473,0.0137584,3.30604,0.0049
-0.15,67429.462,3.3938,2.6128,0.0,,9.8924,-0.50907,3.3938,2.6128,-3.30097,-0.303515,9.8924,-0.509124,0.0135294,3.30604,0.0049
-0.15002,67609.463,3.3915,2.6203,0.0,0.0,9.9179,-0.50879,,,,,9.9179,-0.508773,0.0143123,3.30604,0.0049
-0.15001,67789.463,3.389,2.6278,,,9.9433,-0.50838,,,,,9.9433,-0.50841,0.0142548,3.08036,0.0049
-0.15001,67969.463,3.3867,2.6354,0.0,,9.9687,-0.50804,,,,,9.9687,-0.508046,0.0146236,3.08036,0.0049
-0.15002,68149.463,3.384,2.6429,,0.0,9.9941,-0.50767,,,,,9.9941,-0.507669,0.0150718,2.85469,0.0049
-0.15002,68329.463,3.3814,2.6504,0.0,,10.019,-0.50728,,,,,10.019,-0.50725,0.0164576,2.6247,0.0049
-0.15002,68509.464,3.3784,2.6579,,0.0,10.045,-0.50683,3.3784,2.6579,-2.53246,-0.395,10.045,-0.506841,0.0172704,2.6247,0.0049
-0.15002,68689.463,3.3754,2.6654,0.0,0.0,10.07,-0.50638,,,,,10.07,-0.506383,0.0175118,2.38089,0.0049
-0.15002,68869.464,3.3724,2.6729,,2.4636,10.095,-0.50593,,,,,10.095,-0.505899,0.0199642,2.38089,0.0049
-0.15001,69049.463,3.3688,2.6804,0.0,,10.121,-0.50535,,,,,10.121,-0.505391,0.0212149,2.1509,0.0049
-0.15002,69229.462,3.3653,2.6879,,0.0,10.146,-0.50486,,,,,10.146,-0.504835,0.0231352,1.9338,0.0049
-0.15003,69409.462,3.3613,2.6954,,,10.171,-0.5043,,,,,10.171,-0.504248,0.0249718,1.74772,0.0049
-0.15002,69589.462,3.3569,2.7029,0.0,1.8031,10.196,-0.5036,,,,,10.196,-0.503618,0.0259915,1.59791,0.0049
-0.15002,69769.462,3.3524,2.7104,0.58165,1.6125,10.222,-0.50293,,,,,10.222,-0.502918,0.02858,1.59791,0.0049
-0.15003,69949.462,3.3469,2.7179,,1.4617,10.247,-0.50214,,,,,10.247,-0.502136,0.0341876,1.30063,0.0049
-0.15001,70129.462,3.3412,2.7254,,1.3251,10.272,-0.50121,3.3412,2.7254,-1.17669,-0.853333,10.272,-0.501243,0.0366136,1.19473,0.0049
-0.15002,70309.464,3.3348,2.7329,0.0,,10.297,-0.50029,3.3348,2.7329,-1.11198,-0.91,10.297,-0.500252,0.0414539,1.12411,0.0049
-0.15001,70489.464,3.3274,2.7404,0.0,1.0321,10.322,-0.49914,,,,,10.322,-0.499166,0.0452876,0.987192,0.0049
-0.15002,70669.464,3.3196,2.7479,,,10.347,-0.49801,,,,,10.347,-0.497976,0.0485613,0.907012,0.0049
-0.15002,70849.463,3.3108,2.7554,1.1237,0.85846,10.372,-0.49669,3.3108,2.7554,-0.844345,-1.18667,10.372,-0.496678,0.0548942,0.827821,0.0049
-0.15002,71029.464,3.3012,2.7629,1.2419,0.78046,10.396,-0.49525,3.3012,2.7629,-0.735294,-1.36,10.396,-0.495232,0.0584151,0.747642,0.0049
-0.15002,71209.464,3.2909,2.7704,1.3723,0.71665,10.421,-0.4937,3.2909,2.7704,-0.685189,-1.46,10.421,-0.49368,0.0668663,0.699473,0.0049
-0.15002,71389.463,3.2793,2.7779,,0.6613,10.446,-0.49196,3.2793,2.7779,-0.634739,-1.58,10.446,-0.491989,0.0745149,0.641742,0.0049
-0.15002,71569.462,3.2669,2.7854,,0.57877,10.47,-0.4901,3.2669,2.7854,-0.556105,-1.8,10.47,-0.490091,0.0833858,0.571125,0.0049
-0.15001,71749.463,3.2529,2.7929,1.8801,,10.495,-0.48797,3.2529,2.7929,-0.515573,-1.94,10.495,-0.487992,0.0914831,0.513394,0.0049
-0.15003,71929.463,3.2376,2.8004,,0.47695,10.519,-0.48574,3.2376,2.8004,-0.463281,-2.16,10.519,-0.485704,0.0999636,0.455662,0.0049
-0.15002,72109.463,3.2211,2.8079,2.2248,0.44333,10.543,-0.48323,3.2211,2.8079,-0.435375,-2.3,10.543,-0.483201,0.108998,0.442776,0.0049
-0.15002,72289.463,3.2029,2.8154,2.4227,0.4144,10.567,-0.4805,3.2029,2.8154,-0.406558,-2.46,10.567,-0.480504,0.115998,0.434203,0.0049
-0.15002,72469.462,3.1837,2.8229,,0.38069,10.591,-0.47762,3.1837,2.8229,-0.370411,-2.7,10.591,-0.477608,0.124624,0.354023,0.0049
-0.15001,72649.462,3.163,2.8304,2.82,0.35869,10.615,-0.47448,3.163,2.8304,-0.352672,-2.84,10.615,-0.4745,0.135076,0.376471,0.0049
-0.15002,72829.463,3.1404,2.8379,3.0124,0.32874,10.639,-0.47112,3.1404,2.8379,-0.318497,-3.14,10.639,-0.471128,0.145938,0.323002,0.0049
-0.15001,73009.462,3.1162,2.8454,3.2415,0.3022,10.662,-0.46746,3.1162,2.8454,-0.294199,-3.4,10.662,-0.467464,0.170825,0.305854,0.0049
-0.15002,73189.463,3.0896,2.8529,3.6114,0.27365,10.686,-0.4635,3.0896,2.8529,-0.271803,-3.68,10.686,-0.463503,0.186956,0.287719,0.0049
-0.15002,73369.463,3.0605,2.8604,3.9822,0.25262,10.709,-0.45914,3.0605,2.8604,-0.241828,-4.14,10.709,-0.45914,0.206116,0.207539,0.0049
-0.15003,73549.462,3.0281,2.8679,4.3963,0.22554,10.731,-0.45431,3.0281,2.8679,-0.219602,-4.56,10.731,-0.45427,0.231743,0.239549,0.0049
-0.15002,73729.462,2.9913,2.8754,5.0964,0.19314,10.754,-0.44875,2.9913,2.8754,-0.191847,-5.22,10.754,-0.448772,0.26265,0.194653,0.0049
-0.15003,73909.463,2.9492,2.8829,5.8599,0.16767,10.776,-0.44247,2.9492,2.8829,-0.16422,-6.1,10.776,-0.442454,0.302777,0.167944,0.0049
-0.15002,74089.462,2.8993,2.8904,7.0995,0.13911,10.798,-0.43495,2.8993,2.8904,-0.136696,-7.34,10.798,-0.435136,0.358028,0.128348,0.0049
-0.15002,74269.462,2.8346,2.8979,9.6428,0.097905,10.82,-0.42525,2.8346,2.8979,-0.0942127,-10.82,10.82,-0.425087,0.642889,0.079191,0.0049
-0.15002,74449.464,2.7154,2.9054,21.207,0.046029,10.841,-0.40736,2.7154,2.9054,-0.0472374,-21.3,10.841,-0.406851,1.15507,0.0395955,0.0049
-0.15001,74629.463,2.5455,2.9129,21.994,0.045099,10.86,-0.38185,2.5455,2.9129,-0.0454415,-22.0197,10.86,-0.382689,1.40348,0.0620436,0.0049
-0.15048,74681.365,2.4999,2.915,20.512,0.048667,10.866,-0.37618,2.4999,2.915,0.0,,,,,,0.0049