File: Data/processed_data/Cycle 745_discharge.csv
Current(A),Test_Time(s),Voltage(V),Discharge_Capacity(Ah),dV/dQ(V/Ah),dQ/dV(Ah/V),Discharge_Energy(Wh),Power(W),Downsampled Voltage (V),Downsampled Capacity (Ah),dQ/dV from downsampled Voltage (Ah/V),dV/dQ from downsampled Cpacity (V/Ah),Downsampled Energy (Wh),Downsampled Power (W),dP/dE from downsampled Energy (W/Wh),dQ/dV from LEAN (Ah/V),Delta_V (V) in LEAN
-0.14999,13096.735,4.0668,0.34739,0.0,0.0,1.4217,-0.60998,,,,,1.4217,-0.609989,0.00283182,5.29666,0.0056
-0.14999,13276.735,4.066,0.35489,,,1.4522,-0.60986,,,,,1.4522,-0.609875,0.00492713,5.29666,0.0056
-0.14999,13456.737,4.0651,0.36239,0.0,0.0,1.4826,-0.60972,,,,,1.4826,-0.609706,0.0060714,5.29666,0.0056
-0.14999,13636.734,4.0638,0.36989,,,1.5131,-0.60953,,,,,1.5131,-0.609529,0.00596518,5.29666,0.0056
-0.14999,13816.736,4.0627,0.37738,0.0,,1.5436,-0.60936,,,,,1.5436,-0.609338,0.00632191,5.29666,0.0056
-0.14999,13996.734,4.0611,0.38488,,0.0,1.574,-0.60912,,,,,1.574,-0.609132,0.00699842,4.78859,0.0056
-0.15,14176.737,4.0596,0.39238,0.0,,1.6045,-0.60894,,,,,1.6045,-0.608911,0.00725889,4.78859,0.0056
-0.14999,14356.737,4.0582,0.39988,0.15972,0.0,1.6349,-0.60869,4.0582,0.39988,-4.6237,-0.22213,1.6349,-0.608684,0.00688345,4.78859,0.0056
-0.15,14536.734,4.0563,0.40737,,0.0,1.6653,-0.60845,,,,,1.6653,-0.608458,0.00847416,4.18928,0.0056
-0.14999,14716.735,4.0546,0.41487,0.0,,1.6958,-0.60815,,,,,1.6958,-0.608178,0.00950377,4.18928,0.0056
-0.14999,14896.736,4.0528,0.42237,,4.1728,1.7261,-0.60788,,,,,1.7261,-0.607871,0.0104019,4.18928,0.0056
-0.14999,15076.736,4.0506,0.42987,0.0,,1.7565,-0.60755,,,,,1.7565,-0.607583,0.0107642,3.7102,0.0056
-0.14999,15256.735,4.0488,0.43737,,0.0,1.7869,-0.60728,,,,,1.7869,-0.607251,0.0111069,3.7102,0.0056
-0.14999,15436.735,4.0465,0.44486,0.0,0.0,1.8172,-0.60693,,,,,1.8172,-0.606935,0.010778,3.7102,0.0056
-0.14999,15616.734,4.0445,0.45236,,,1.8476,-0.60663,,,,,1.8476,-0.606624,0.00988483,3.38987,0.0056
-0.14999,15796.736,4.0422,0.45986,0.0,,1.8779,-0.60629,4.0422,0.45986,-3.29403,-0.304,1.8779,-0.606313,0.0111357,3.38987,0.0056
-0.14999,15976.737,4.04,0.46736,,0.0,1.9082,-0.60596,,,,,1.9082,-0.60595,0.0113804,3.38987,0.0056
-0.14998,16156.736,4.0377,0.47485,0.29428,3.2749,1.9385,-0.60557,,,,,1.9385,-0.605582,0.0120508,3.17455,0.0056
-0.14999,16336.737,4.0351,0.48235,,,1.9687,-0.60522,,,,,1.9687,-0.605221,0.0115835,3.17455,0.0056
-0.14998,16516.734,4.0328,0.48985,0.0,3.1042,1.999,-0.60484,,,,,1.999,-0.604853,0.0115673,3.03943,0.0056
-0.14999,16696.735,4.0301,0.49735,,,2.0292,-0.60447,4.0301,0.49735,-2.975,-0.336135,2.0292,-0.604502,0.0116527,3.03943,0.0056
-0.14999,16876.735,4.0278,0.50485,0.32667,3.0001,2.0594,-0.60413,,,,,2.0594,-0.604122,0.0128378,2.92262,0.0056
-0.14998,17056.735,4.0253,0.51234,,,2.0896,-0.60371,,,,,2.0896,-0.603719,0.0135487,2.92262,0.0056
-0.14999,17236.734,4.0224,0.51984,0.0,2.8711,2.1198,-0.60332,4.0224,0.51984,-2.82242,-0.354444,2.1198,-0.603325,0.0127213,2.80497,0.0056
-0.14999,17416.737,4.02,0.52734,,,2.1499,-0.60296,,,,,2.1499,-0.602922,0.013232,2.80497,0.0056
-0.14999,17596.734,4.017,0.53484,,2.7911,2.18,-0.60251,,,,,2.18,-0.602535,0.0135591,2.71826,0.0056
-0.15,17776.737,4.0143,0.54233,0.0,,2.2102,-0.60215,4.0143,0.54233,-2.77623,-0.3602,2.2102,-0.602131,0.0136209,2.71826,0.0056
-0.14999,17956.736,4.0117,0.54983,,,2.2402,-0.60171,,,,,2.2402,-0.601698,0.0146463,2.65438,0.0056
-0.14999,18136.736,4.0087,0.55733,0.0,0.0,2.2703,-0.60126,,,,,2.2703,-0.601283,0.014486,2.65438,0.0056
-0.14999,18316.735,4.006,0.56483,0.0,0.0,2.3004,-0.60086,4.006,0.56483,-2.59828,-0.385,2.3004,-0.600841,0.0146612,2.60145,0.0056
-0.15,18496.735,4.0029,0.57233,,2.5376,2.3304,-0.60044,,,,,2.3304,-0.600415,0.0139091,2.60145,0.0056
-0.15,18676.735,4.0001,0.57982,0.0,,2.3604,-0.60002,,,,,2.3604,-0.599985,0.0143625,2.5522,0.0056
-0.14999,18856.737,3.9972,0.58732,,2.6169,2.3904,-0.59954,,,,,2.3904,-0.599547,0.0151142,2.5522,0.0056
-0.15,19036.736,3.9942,0.59482,0.0,,2.4203,-0.59913,3.9942,0.59482,-2.59828,-0.385,2.4203,-0.599113,0.0136119,2.52573,0.0056
-0.15001,19216.736,3.9914,0.60232,,,2.4503,-0.59875,,,,,2.4503,-0.598676,0.0158304,2.52573,0.0056
-0.15,19396.736,3.9882,0.60981,0.0,0.0,2.4802,-0.59823,,,,,2.4802,-0.598224,0.0153015,2.52573,0.0056
-0.15,19576.736,3.9854,0.61731,0.0,0.0,2.5101,-0.59781,,,,,2.5101,-0.597755,0.0140521,2.52573,0.0056
-0.15,19756.737,3.9819,0.62481,,2.4479,2.5399,-0.59729,3.9819,0.62481,-2.53086,-0.405,2.5399,-0.597333,0.0151768,2.5522,0.0056
-0.14998,19936.735,3.9793,0.63231,0.0,,2.5698,-0.59682,,,,,2.5698,-0.596878,0.0144437,2.5522,0.0056
-0.14999,20116.735,3.9765,0.63981,,,2.5996,-0.59644,,,,,2.5996,-0.596433,0.0143098,2.59413,0.0056
-0.15,20296.736,3.9734,0.6473,0.0,0.0,2.6294,-0.59601,,,,,2.6294,-0.596017,0.0156177,2.59413,0.0056
-0.14999,20476.734,3.9706,0.6548,,0.0,2.6592,-0.59555,,,,,2.6592,-0.595562,0.0145958,2.6206,0.0056
-0.14999,20656.737,3.9679,0.6623,0.38644,2.6138,2.689,-0.59515,,,,,2.689,-0.595134,0.0136047,2.6206,0.0056
-0.15,20836.735,3.9648,0.6698,,,2.7187,-0.59472,,,,,2.7187,-0.594725,0.0146323,2.64986,0.0056
-0.14998,21016.735,3.9622,0.67729,0.0,2.6395,2.7484,-0.59425,3.9622,0.67729,-2.74971,-0.363754,2.7484,-0.59428,0.0142262,2.64986,0.0056
-0.14999,21196.735,3.9593,0.68479,,,2.7781,-0.59386,,,,,2.7781,-0.593866,0.0135846,2.72194,0.0056
-0.15,21376.737,3.9565,0.69229,,,2.8078,-0.59348,,,,,2.8078,-0.593475,0.0131584,2.72194,0.0056
-0.15,21556.737,3.954,0.69979,0.0,0.0,2.8374,-0.5931,3.954,0.69979,-2.80516,-0.356568,2.8374,-0.593075,0.0129575,2.83591,0.0056
-0.15,21736.735,3.9512,0.70729,,,2.8671,-0.59268,,,,,2.8671,-0.592681,0.0134233,2.83591,0.0056
-0.14999,21916.736,3.9486,0.71478,0.0,0.0,2.8967,-0.59225,,,,,2.8967,-0.592282,0.0131078,2.93362,0.0056
-0.14999,22096.735,3.9462,0.72228,0.0,,2.9263,-0.59189,3.9462,0.72228,-2.92608,-0.341778,2.9263,-0.59188,0.0125135,2.93362,0.0056
-0.15,22276.736,3.9435,0.72978,,0.0,2.9559,-0.59153,,,,,2.9559,-0.591513,0.0121177,3.05406,0.0056
-0.14999,22456.736,3.9412,0.73728,0.0,0.0,2.9854,-0.59114,,,,,2.9854,-0.591139,0.0127823,3.05406,0.0056
-0.14999,22636.737,3.9386,0.74477,,0.0,3.015,-0.59075,,,,,3.015,-0.590787,0.0118719,3.20186,0.0056
-0.14999,22816.735,3.9365,0.75227,0.0,,3.0445,-0.59044,,,,,3.0445,-0.590421,0.0117067,3.20186,0.0056
-0.15,22996.734,3.9339,0.75977,,0.0,3.074,-0.59009,3.9339,0.75977,-3.24785,-0.308,3.074,-0.590083,0.0122723,3.20186,0.0056
-0.14999,23176.736,3.9317,0.76727,0.0,,3.1035,-0.58972,,,,,3.1035,-0.589738,0.0111841,3.36061,0.0056
-0.14999,23356.737,3.9295,0.77477,,0.0,3.133,-0.58939,,,,,3.133,-0.58939,0.012256,3.36061,0.0056
-0.14998,23536.735,3.9272,0.78226,,3.3613,3.1624,-0.589,,,,,3.1624,-0.589034,0.0112078,3.51851,0.0056
-0.14999,23716.736,3.9252,0.78976,0.0,,3.1918,-0.58874,,,,,3.1918,-0.588731,0.0103351,3.51851,0.0056
-0.15,23896.735,3.9229,0.79726,,0.0,3.2213,-0.58844,,,,,3.2213,-0.588434,0.00989606,3.51851,0.0056
-0.15,24076.736,3.9211,0.80476,0.0,0.0,3.2507,-0.58817,,,,,3.2507,-0.588118,0.0109605,3.70009,0.0056
-0.14998,24256.735,3.9189,0.81225,,,3.2801,-0.58776,,,,,3.2801,-0.587794,0.0111305,3.70009,0.0056
-0.14999,24436.734,3.9168,0.81975,0.0,,3.3094,-0.58748,,,,,3.3094,-0.587497,0.00869012,3.70009,0.0056
-0.15,24616.737,3.9151,0.82725,0.0,0.0,3.3388,-0.58727,,,,,3.3388,-0.58721,0.0103004,3.86784,0.0056
-0.14999,24796.736,3.913,0.83475,,,3.3681,-0.58691,,,,,3.3681,-0.586915,0.0100399,3.86784,0.0056
-0.14999,24976.735,3.9112,0.84225,0.0,0.0,3.3975,-0.58664,,,,,3.3975,-0.58663,0.00844869,3.86784,0.0056
-0.14999,25156.735,3.9092,0.84974,,,3.4268,-0.58634,,,,,3.4268,-0.586366,0.00956781,3.91261,0.0056
-0.14999,25336.736,3.9074,0.85724,0.24988,3.9749,3.4561,-0.58607,,,,,3.4561,-0.586075,0.00928595,3.91261,0.0056
-0.14999,25516.737,3.9056,0.86474,,,3.4854,-0.5858,,,,,3.4854,-0.585808,0.00968793,3.91261,0.0056
-0.15,25696.736,3.9036,0.87224,0.0,0.0,3.5147,-0.58554,,,,,3.5147,-0.585533,0.00945753,3.85153,0.0056
-0.15,25876.737,3.9019,0.87973,,,3.5439,-0.58529,3.9019,0.87973,-3.90836,-0.258007,3.5439,-0.585241,0.0101939,3.85153,0.0056
-0.14999,26056.735,3.8997,0.88723,0.0,0.0,3.5732,-0.58492,,,,,3.5732,-0.584956,0.0105352,3.72372,0.0056
-0.14999,26236.735,3.8978,0.89473,0.25715,3.8311,3.6024,-0.58463,3.8978,0.89473,-3.65854,-0.273333,3.6024,-0.584636,0.0101951,3.72372,0.0056
-0.14999,26416.735,3.8957,0.90223,,,3.6316,-0.58432,,,,,3.6316,-0.584336,0.010871,3.72372,0.0056
-0.14999,26596.735,3.8937,0.90973,0.0,,3.6608,-0.58402,3.8937,0.90973,-3.61,-0.277093,3.6608,-0.584027,0.0109267,3.51572,0.0056
-0.14998,26776.737,3.8917,0.91722,,,3.69,-0.58368,,,,,3.69,-0.583688,0.0112201,3.51572,0.0056
-0.14999,26956.735,3.8894,0.92472,0.0,0.0,3.7192,-0.58337,,,,,3.7192,-0.5834,0.010266,3.51572,0.0056
-0.15,27136.734,3.8873,0.93222,,3.4633,3.7483,-0.5831,,,,,3.7483,-0.583073,0.0115704,3.25843,0.0056
-0.14999,27316.736,3.8849,0.93972,0.0,,3.7775,-0.5827,,,,,3.7775,-0.582707,0.0131317,3.25843,0.0056
-0.14999,27496.735,3.8825,0.94722,,3.2214,3.8066,-0.58234,,,,,3.8066,-0.582355,0.0117559,3.01944,0.0056
-0.15,27676.735,3.8802,0.95472,,,3.8357,-0.58203,,,,,3.8357,-0.581993,0.0128301,3.01944,0.0056
-0.15,27856.734,3.8775,0.96222,0.32013,2.9868,3.8648,-0.58163,,,,,3.8648,-0.581624,0.0134369,2.87253,0.0056
-0.15,28036.737,3.875,0.96971,,,3.8939,-0.58125,,,,,3.8939,-0.581218,0.0138526,2.87253,0.0056
-0.14999,28216.735,3.8721,0.97721,0.0,2.8153,3.9229,-0.58078,,,,,3.9229,-0.580808,0.0144318,2.87253,0.0056
-0.14999,28396.734,3.8696,0.98471,,,3.9519,-0.5804,3.8696,0.98471,-2.77778,-0.36,3.9519,-0.5804,0.013167,2.80213,0.0056
-0.15,28576.737,3.8669,0.99221,,2.7793,3.9809,-0.58004,,,,,3.9809,-0.580009,0.0138916,2.80213,0.0056
-0.15,28756.737,3.864,0.99971,0.0,,4.0099,-0.5796,,,,,4.0099,-0.579602,0.0141115,2.71462,0.0056
-0.14999,28936.735,3.8614,1.0072,,,4.0389,-0.57917,,,,,4.0389,-0.579169,0.0155091,2.71462,0.0056
-0.14998,29116.735,3.8584,1.0147,0.0,0.0,4.0678,-0.57868,3.8584,1.0147,-2.61947,-0.381778,4.0678,-0.578735,0.0150627,2.64986,0.0056
-0.14999,29296.735,3.8557,1.0222,0.0,0.0,4.0968,-0.57832,,,,,4.0968,-0.578303,0.0141234,2.64986,0.0056
-0.14999,29476.734,3.8528,1.0297,,,4.1257,-0.57788,,,,,4.1257,-0.577882,0.0150409,2.63523,0.0056
-0.14999,29656.735,3.8498,1.0372,0.0,0.0,4.1545,-0.57743,3.8498,1.0372,-2.70665,-0.37,4.1545,-0.577475,0.0142632,2.63523,0.0056
-0.15,29836.736,3.8471,1.0447,,2.6373,4.1834,-0.57707,,,,,4.1834,-0.577042,0.014621,2.66169,0.0056
-0.15,30016.735,3.8442,1.0522,,,4.2122,-0.57663,,,,,4.2122,-0.576622,0.014973,2.66169,0.0056
-0.15,30196.735,3.8415,1.0597,0.0,,4.2411,-0.57623,,,,,4.2411,-0.576187,0.01499,2.70363,0.0056
-0.14998,30376.736,3.8386,1.0672,,0.0,4.2698,-0.57571,,,,,4.2698,-0.575747,0.0148179,2.70363,0.0056
-0.14999,30556.736,3.8358,1.0747,0.0,,4.2986,-0.57533,,,,,4.2986,-0.575344,0.0133693,2.7301,0.0056
-0.14999,30736.736,3.8332,1.0822,,0.0,4.3274,-0.57494,,,,,4.3274,-0.574944,0.014383,2.7301,0.0056
-0.14999,30916.736,3.8304,1.0897,0.0,0.0,4.3561,-0.57452,3.8304,1.0897,-2.77778,-0.36,4.3561,-0.574542,0.0143733,2.75204,0.0056
-0.14999,31096.735,3.8278,1.0972,0.36273,,4.3848,-0.57413,,,,,4.3848,-0.574135,0.0136872,2.75204,0.0056
-0.15,31276.736,3.8251,1.1047,,0.0,4.4135,-0.57377,,,,,4.4135,-0.573746,0.0144306,2.79766,0.0056
-0.14999,31456.736,3.8223,1.1122,0.0,2.7921,4.4422,-0.57331,3.8223,1.1122,-2.83665,-0.352889,4.4422,-0.57333,0.0141706,2.79766,0.0056
-0.14999,31636.734,3.8198,1.1197,,,4.4708,-0.57293,,,,,4.4708,-0.572928,0.0133531,2.86238,0.0056
-0.14999,31816.737,3.817,1.1272,,2.8079,4.4995,-0.57251,,,,,4.4995,-0.572548,0.0136136,2.86238,0.0056
-0.14999,31996.734,3.8145,1.1347,0.0,,4.5281,-0.57214,3.8145,1.1347,-2.8795,-0.347333,4.5281,-0.57216,0.0137345,2.89252,0.0056
-0.14999,32176.735,3.812,1.1422,,2.9023,4.5567,-0.57176,,,,,4.5567,-0.571759,0.0142829,2.89252,0.0056
-0.14999,32356.735,3.8092,1.1497,,,4.5853,-0.57134,,,,,4.5853,-0.571339,0.0142997,2.90347,0.0056
-0.14998,32536.736,3.8066,1.1572,,,4.6138,-0.57091,,,,,4.6138,-0.570969,0.013299,2.90347,0.0056
-0.15,32716.737,3.8041,1.1647,0.0,0.0,4.6424,-0.57062,,,,,4.6424,-0.57059,0.0129379,2.91447,0.0056
-0.15,32896.737,3.8015,1.1722,,,4.6709,-0.57023,,,,,4.6709,-0.570202,0.0140437,2.91447,0.0056
-0.14999,33076.735,3.7989,1.1797,0.0,0.0,4.6994,-0.5698,,,,,4.6994,-0.569846,0.0122917,2.9564,0.0056
-0.15,33256.736,3.7966,1.1872,,,4.7278,-0.56949,,,,,4.7278,-0.569463,0.0140588,2.9564,0.0056
-0.14999,33436.734,3.7939,1.1947,0.0,0.0,4.7563,-0.56905,3.7939,1.1947,-2.97619,-0.336,4.7563,-0.569079,0.013748,2.9564,0.0056
-0.15,33616.735,3.7915,1.2022,,,4.7847,-0.56873,,,,,4.7847,-0.568695,0.0130611,2.99103,0.0056
-0.15,33796.736,3.7888,1.2097,0.0,0.0,4.8132,-0.56832,,,,,4.8132,-0.568335,0.0133537,2.99103,0.0056
-0.15,33976.736,3.7864,1.2172,,,4.8416,-0.56796,3.7864,1.2172,-3.03854,-0.329111,4.8416,-0.567959,0.0127706,2.99018,0.0056
-0.15,34156.734,3.7839,1.2247,0.0,0.0,4.87,-0.56759,,,,,4.87,-0.56759,0.0132485,2.99018,0.0056
-0.15,34336.736,3.7813,1.2322,,,4.8983,-0.5672,,,,,4.8983,-0.567213,0.0130399,2.9975,0.0056
-0.14999,34516.735,3.779,1.2397,0.0,0.0,4.9267,-0.56681,,,,,4.9267,-0.566816,0.0142484,2.9975,0.0056
-0.14999,34696.736,3.7764,1.2472,,,4.955,-0.56642,,,,,4.955,-0.566443,0.0131553,3.02481,0.0056
-0.15001,34876.735,3.774,1.2547,0.0,0.0,4.9833,-0.56614,3.774,1.2547,-3.01292,-0.332,4.9833,-0.566071,0.0128416,3.02481,0.0056
-0.14999,35056.736,3.7716,1.2622,,,5.0116,-0.5657,,,,,5.0116,-0.565702,0.0135062,3.02481,0.0056
-0.15001,35236.737,3.7689,1.2697,0.0,0.0,5.0399,-0.56537,,,,,5.0399,-0.565332,0.0128094,3.03212,0.0056
-0.14999,35416.736,3.7666,1.2772,,,5.0681,-0.56495,,,,,5.0681,-0.564953,0.0133772,3.03212,0.0056
-0.15,35596.735,3.7639,1.2847,0.0,0.0,5.0964,-0.56459,,,,,5.0964,-0.564587,0.0130003,3.00933,0.0056
-0.15,35776.736,3.7615,1.2922,,,5.1246,-0.56423,,,,,5.1246,-0.564207,0.0130065,3.00933,0.0056
-0.15,35956.735,3.7591,1.2997,0.0,0.0,5.1528,-0.56387,,,,,5.1528,-0.563841,0.0137132,2.97919,0.0056
-0.14999,36136.736,3.7564,1.3072,,,5.181,-0.56342,,,,,5.181,-0.563453,0.0138388,2.97919,0.0056
-0.14999,36316.736,3.7541,1.3147,0.0,0.0,5.2091,-0.56308,3.7541,1.3147,-2.97619,-0.336,5.2091,-0.563057,0.0133289,2.94825,0.0056
-0.15,36496.737,3.7514,1.3222,,,5.2373,-0.56271,,,,,5.2373,-0.562704,0.0136064,2.94825,0.0056
-0.15,36676.736,3.7489,1.3297,0.0,0.0,5.2654,-0.56234,,,,,5.2654,-0.562328,0.0132469,2.94825,0.0056
-0.15,36856.735,3.7465,1.3372,,,5.2935,-0.56198,,,,,5.2935,-0.561936,0.0142302,2.9564,0.0056
-0.14999,37036.735,3.7438,1.3447,0.0,0.0,5.3216,-0.56153,,,,,5.3216,-0.561557,0.0134546,2.9564,0.0056
-0.15,37216.734,3.7414,1.3522,,,5.3496,-0.56121,,,,,5.3496,-0.561175,0.0130084,2.96456,0.0056
-0.14999,37396.735,3.7388,1.3597,0.0,0.0,5.3777,-0.56078,,,,,5.3777,-0.560802,0.0136818,2.96456,0.0056
-0.15,37576.736,3.7361,1.3672,0.0,,5.4057,-0.56042,,,,,5.4057,-0.560423,0.0133882,2.94093,0.0056
-0.15,37756.735,3.7338,1.3746,,0.0,5.4337,-0.56007,3.7338,1.3746,-2.90043,-0.34496,5.4337,-0.560021,0.0142154,2.94093,0.0056
-0.14999,37936.736,3.731,1.3821,0.0,,5.4617,-0.55961,,,,,5.4617,-0.559658,0.0126977,2.92994,0.0056
-0.15001,38116.736,3.7286,1.3896,,0.0,5.4897,-0.55933,,,,,5.4897,-0.559278,0.013095,2.92994,0.0056
-0.14999,38296.734,3.726,1.3971,0.0,,5.5176,-0.55886,3.726,1.3971,-2.94199,-0.34,5.5176,-0.558879,0.0151039,2.93725,0.0056
-0.14999,38476.737,3.7233,1.4046,,0.0,5.5456,-0.55846,,,,,5.5456,-0.558497,0.0127038,2.93725,0.0056
-0.14999,38656.735,3.721,1.4121,0.0,,5.5735,-0.55811,,,,,5.5735,-0.558105,0.0136025,2.93725,0.0056
-0.14999,38836.736,3.7183,1.4196,,0.0,5.6014,-0.55771,3.7183,1.4196,-2.91126,-0.343778,5.6014,-0.557745,0.014313,2.9674,0.0056
-0.15,39016.736,3.7157,1.4271,0.0,,5.6292,-0.55736,,,,,5.6292,-0.557359,0.0135549,2.9674,0.0056
-0.15,39196.735,3.7134,1.4346,,0.0,5.6571,-0.55701,,,,,5.6571,-0.556977,0.013481,3.02113,0.0056
-0.15001,39376.735,3.7107,1.4421,0.0,,5.6849,-0.55664,,,,,5.6849,-0.556614,0.0132554,3.02113,0.0056
-0.15,39556.736,3.7084,1.4496,,0.0,5.7127,-0.55626,,,,,5.7127,-0.556241,0.0124966,3.05043,0.0056
-0.15,39736.735,3.7059,1.4571,0.0,,5.7405,-0.55589,3.7059,1.4571,-3.05241,-0.328,5.7405,-0.555876,0.0124215,3.05043,0.0056
-0.14999,39916.735,3.7034,1.4646,,0.0,5.7683,-0.55547,,,,,5.7683,-0.555529,0.0129997,3.09968,0.0056
-0.15,40096.736,3.7011,1.4721,0.0,,5.7961,-0.55517,,,,,5.7961,-0.555139,0.0139123,3.09968,0.0056
-0.14999,40276.735,3.6985,1.4796,,0.0,5.8238,-0.55474,,,,,5.8238,-0.554766,0.013212,3.09968,0.0056
-0.15,40456.737,3.6963,1.4871,0.0,,5.8515,-0.55445,,,,,5.8515,-0.55442,0.0123575,3.17172,0.0056
-0.14999,40636.736,3.6939,1.4946,,0.0,5.8792,-0.55405,3.6939,1.4946,-3.24785,-0.308,5.8792,-0.554042,0.0140059,3.17172,0.0056
-0.14999,40816.736,3.6915,1.5021,0.0,,5.9069,-0.55369,,,,,5.9069,-0.553689,0.0115803,3.24663,0.0056
-0.14999,40996.737,3.6893,1.5096,,0.0,5.9346,-0.55336,,,,,5.9346,-0.553357,0.0121706,3.24663,0.0056
-0.14999,41176.735,3.6868,1.5171,,3.2764,5.9622,-0.55298,,,,,5.9622,-0.553016,0.0133458,3.36424,0.0056
-0.14999,41356.736,3.6847,1.5246,0.0,,5.9899,-0.55267,,,,,5.9899,-0.552659,0.0121618,3.36424,0.0056
-0.14999,41536.735,3.6826,1.5321,,0.0,6.0175,-0.55235,,,,,6.0175,-0.55234,0.0118336,3.36424,0.0056
-0.15,41716.737,3.6802,1.5396,0.0,0.0,6.0451,-0.55203,,,,,6.0451,-0.552027,0.0117412,3.47378,0.0056
-0.15,41896.735,3.6782,1.5471,,,6.0727,-0.55173,3.6782,1.5471,-3.41049,-0.293455,6.0727,-0.551703,0.0114625,3.47378,0.0056
-0.15,42076.735,3.6759,1.5546,0.0,0.0,6.1003,-0.55139,,,,,6.1003,-0.551385,0.0118332,3.58692,0.0056
-0.15,42256.734,3.6737,1.5621,,,6.1278,-0.55106,3.6737,1.5621,-3.52879,-0.284727,6.1278,-0.551064,0.0113624,3.58692,0.0056
-0.15,42436.737,3.6718,1.5696,0.0,3.5508,6.1553,-0.55077,,,,,6.1553,-0.550728,0.0119784,3.58692,0.0056
-0.14998,42616.735,3.6696,1.5771,,,6.1829,-0.55037,,,,,6.1829,-0.550409,0.0113104,3.69641,0.0056
-0.14999,42796.735,3.6677,1.5846,0.27919,0.0,6.2104,-0.55012,,,,,6.2104,-0.550108,0.00993159,3.69641,0.0056
-0.14999,42976.736,3.6656,1.5921,,0.0,6.2379,-0.5498,,,,,6.2379,-0.549821,0.0111866,3.69641,0.0056
-0.14999,43156.735,3.6636,1.5996,0.0,,6.2653,-0.5495,,,,,6.2653,-0.549529,0.0105316,3.8169,0.0056
-0.15,43336.735,3.6618,1.6071,,,6.2928,-0.54927,3.6618,1.6071,-3.90776,-0.256044,6.2928,-0.549226,0.011226,3.8169,0.0056
-0.14999,43516.737,3.6597,1.6146,0.0,0.0,6.3203,-0.54892,,,,,6.3203,-0.548927,0.0106472,3.8169,0.0056
-0.14999,43696.736,3.6579,1.6221,0.26193,,6.3477,-0.54865,3.6579,1.6221,-3.84615,-0.26,6.3477,-0.54864,0.00961644,3.97197,0.0056
-0.14999,43876.736,3.6559,1.6296,,0.0,6.3751,-0.54835,,,,,6.3751,-0.54836,0.011053,3.97197,0.0056
-0.14998,44056.735,3.654,1.6371,0.0,,6.4025,-0.54803,3.654,1.6371,-3.95284,-0.253333,6.4025,-0.548062,0.0101898,3.97197,0.0056
-0.14999,44236.736,3.6523,1.6446,,3.9983,6.4299,-0.54781,,,,,6.4299,-0.547775,0.0103755,4.12345,0.0056
-0.14998,44416.736,3.6503,1.6521,0.0,,6.4573,-0.54747,3.6503,1.6521,-4.15568,-0.240952,6.4573,-0.54751,0.00996418,4.12345,0.0056
-0.14999,44596.735,3.6486,1.6596,,0.0,6.4846,-0.54725,,,,,6.4846,-0.547251,0.00952404,4.12345,0.0056
-0.14999,44776.736,3.6467,1.6671,,,6.512,-0.54697,,,,,6.512,-0.546986,0.00970056,4.24474,0.0056
-0.15,44956.735,3.6449,1.6746,0.0,0.0,6.5393,-0.54674,,,,,6.5393,-0.546736,0.00927278,4.24474,0.0056
-0.14999,45136.736,3.6433,1.6821,,,6.5666,-0.54646,,,,,6.5666,-0.546456,0.0107111,4.24474,0.0056
-0.14999,45316.736,3.6414,1.6896,0.0,,6.594,-0.54617,,,,,6.594,-0.546168,0.010113,4.27488,0.0056
-0.14999,45496.735,3.6397,1.6971,,0.0,6.6213,-0.54592,,,,,6.6213,-0.545906,0.00823664,4.27488,0.0056
-0.15,45676.734,3.6378,1.7046,0.23582,,6.6485,-0.54567,3.6378,1.7046,-4.44318,-0.225714,6.6485,-0.545668,0.00968868,4.27488,0.0056
-0.14999,45856.736,3.6361,1.7121,,0.0,6.6758,-0.54538,,,,,6.6758,-0.545404,0.0104139,4.25121,0.0056
-0.14999,46036.736,3.6345,1.7196,,,6.7031,-0.54514,,,,,6.7031,-0.54513,0.00884244,4.25121,0.0056
-0.15,46216.735,3.6327,1.7271,0.0,0.0,6.7303,-0.54491,,,,,6.7303,-0.544887,0.0094047,4.25121,0.0056
-0.14999,46396.735,3.6311,1.7346,,0.0,6.7576,-0.54463,,,,,6.7576,-0.544623,0.00966661,4.22842,0.0056
-0.14999,46576.735,3.6292,1.7421,0.0,,6.7848,-0.54434,,,,,6.7848,-0.544361,0.00939957,4.22842,0.0056
-0.14998,46756.736,3.6276,1.7496,0.23136,0.0,6.812,-0.54407,,,,,6.812,-0.54409,0.00988627,4.22842,0.0056
-0.14999,46936.736,3.6256,1.7571,,0.0,6.8392,-0.5438,,,,,6.8392,-0.54382,0.00981454,4.22842,0.0056
-0.14999,47116.735,3.6239,1.7646,0.0,,6.8664,-0.54355,,,,,6.8664,-0.543566,0.00929617,4.23658,0.0056
-0.14999,47296.736,3.6221,1.7721,,4.273,6.8935,-0.54328,3.6221,1.7721,-4.38047,-0.228571,6.8935,-0.543302,0.00957705,4.23658,0.0056
-0.14999,47476.735,3.6205,1.7796,0.0,,6.9207,-0.54304,,,,,6.9207,-0.54305,0.00964979,4.23658,0.0056
-0.14999,47656.735,3.6188,1.7871,,0.0,6.9478,-0.54278,,,,,6.9478,-0.542762,0.0100205,4.22927,0.0056
-0.14999,47836.735,3.6168,1.7946,,4.2472,6.975,-0.54248,,,,,6.975,-0.542506,0.00935213,4.22927,0.0056
-0.15,48016.737,3.6152,1.8021,0.0,,7.0021,-0.54228,,,,,7.0021,-0.542262,0.00863766,4.22927,0.0056
-0.15,48196.735,3.6134,1.8096,,0.0,7.0292,-0.54201,,,,,7.0292,-0.541992,0.010057,4.19464,0.0056
-0.15,48376.734,3.6115,1.8171,0.0,,7.0563,-0.54173,,,,,7.0563,-0.541744,0.00952214,4.19464,0.0056
-0.15,48556.736,3.6099,1.8246,,0.0,7.0834,-0.54149,3.6099,1.8246,-4.1557,-0.241905,7.0834,-0.541458,0.00981517,4.19464,0.0056
-0.14999,48736.735,3.6079,1.8321,0.0,,7.1104,-0.54115,,,,,7.1104,-0.541189,0.0105892,4.16086,0.0056
-0.15,48916.736,3.6061,1.8396,0.0,,7.1375,-0.54092,3.6061,1.8396,-4.09001,-0.245138,7.1375,-0.540918,0.00972546,4.16086,0.0056
-0.14999,49096.736,3.6045,1.847,,0.0,7.1645,-0.54064,,,,,7.1645,-0.54063,0.0110852,4.16086,0.0056
-0.14999,49276.736,3.6025,1.8545,0.0,,7.1915,-0.54034,,,,,7.1915,-0.540363,0.010417,4.11977,0.0056
-0.15,49456.735,3.6008,1.862,,0.0,7.2185,-0.54012,,,,,7.2185,-0.540102,0.00947552,4.11977,0.0056
-0.15,49636.736,3.599,1.8695,0.0,,7.2455,-0.53985,,,,,7.2455,-0.539835,0.0108016,4.11977,0.0056
-0.15,49816.735,3.597,1.877,,4.0691,7.2725,-0.53955,,,,,7.2725,-0.539551,0.0112782,4.02942,0.0056
-0.14999,49996.736,3.5952,1.8845,0.0,,7.2995,-0.53924,,,,,7.2995,-0.539234,0.0110502,4.02942,0.0056
-0.14999,50176.736,3.5932,1.892,,0.0,7.3264,-0.53894,,,,,7.3264,-0.538969,0.0100733,4.02942,0.0056
-0.15,50356.734,3.5914,1.8995,0.0,,7.3534,-0.53871,,,,,7.3534,-0.538691,0.00987697,3.89626,0.0056
-0.15,50536.736,3.5896,1.907,,0.0,7.3803,-0.53844,,,,,7.3803,-0.538401,0.011431,3.89626,0.0056
-0.14999,50716.736,3.5874,1.9145,0.25175,,7.4072,-0.53807,,,,,7.4072,-0.538116,0.0099863,3.89626,0.0056
-0.15,50896.736,3.5857,1.922,,0.0,7.4341,-0.53786,3.5857,1.922,-3.91028,-0.256381,7.4341,-0.537824,0.0102056,3.77497,0.0056
-0.14999,51076.736,3.5836,1.9295,0.0,,7.461,-0.5375,,,,,7.461,-0.537531,0.0114154,3.77497,0.0056
-0.14998,51256.736,3.5816,1.937,,,7.4879,-0.53717,,,,,7.4879,-0.53722,0.0111708,3.77497,0.0056
-0.14999,51436.737,3.5796,1.9445,0.0,0.0,7.5147,-0.5369,,,,,7.5147,-0.536916,0.0111998,3.70457,0.0056
-0.14999,51616.736,3.5776,1.952,0.26499,,7.5416,-0.5366,3.5776,1.952,-3.66377,-0.272952,7.5416,-0.53664,0.0109599,3.70457,0.0056
-0.15,51796.735,3.5757,1.9595,,0.0,7.5684,-0.53636,,,,,7.5684,-0.536325,0.0124413,3.70457,0.0056
-0.14999,51976.734,3.5735,1.967,0.0,,7.5952,-0.53599,,,,,7.5952,-0.536009,0.0116133,3.60607,0.0056
-0.15,52156.736,3.5714,1.9745,,,7.622,-0.53571,,,,,7.622,-0.535709,0.0106499,3.60607,0.0056
-0.14999,52336.735,3.5695,1.982,0.0,0.0,7.6487,-0.53539,,,,,7.6487,-0.535388,0.0128923,3.49573,0.0056
-0.14999,52516.736,3.5672,1.9895,0.2758,3.5482,7.6755,-0.53504,,,,,7.6755,-0.535065,0.0114271,3.49573,0.0056
-0.15001,52696.736,3.5652,1.997,,,7.7023,-0.53482,,,,,7.7023,-0.534746,0.0117639,3.49573,0.0056
-0.14999,52876.735,3.563,2.0045,0.0,0.0,7.729,-0.53441,,,,,7.729,-0.534414,0.0137097,3.42449,0.0056
-0.14999,53056.736,3.5607,2.012,,0.0,7.7557,-0.53407,,,,,7.7557,-0.53407,0.0114913,3.42449,0.0056
-0.15,53236.736,3.5587,2.0195,0.0,,7.7824,-0.53381,,,,,7.7824,-0.533749,0.0116747,3.42449,0.0056
-0.14999,53416.734,3.5562,2.027,0.0,,7.8091,-0.53339,,,,,7.8091,-0.533448,0.0117061,3.36429,0.0056
-0.15001,53596.737,3.5542,2.0345,,0.0,7.8357,-0.53317,3.5542,2.0345,-3.38332,-0.296,7.8357,-0.533109,0.0129947,3.36429,0.0056
-0.15,53776.735,3.5518,2.042,,3.3333,7.8624,-0.53277,,,,,7.8624,-0.532752,0.0135797,3.30768,0.0056
-0.15,53956.734,3.5494,2.0495,0.0,,7.889,-0.53241,,,,,7.889,-0.532417,0.0117362,3.30768,0.0056
-0.15,54136.736,3.5473,2.057,0.30197,3.2541,7.9156,-0.5321,,,,,7.9156,-0.532072,0.0136691,3.30768,0.0056
-0.15,54316.735,3.5448,2.0645,,,7.9422,-0.53172,,,,,7.9422,-0.531729,0.0120479,3.23564,0.0056
-0.15,54496.735,3.5427,2.072,0.0,0.0,7.9688,-0.53141,,,,,7.9688,-0.531374,0.0132426,3.23564,0.0056
-0.14998,54676.734,3.5402,2.0795,,0.0,7.9953,-0.53096,,,,,7.9953,-0.53102,0.0138859,3.18271,0.0056
-0.14999,54856.735,3.538,2.087,0.0,,8.0219,-0.53066,3.538,2.087,-3.20513,-0.312,8.0219,-0.530664,0.011793,3.18271,0.0056
-0.15,55036.735,3.5355,2.0945,0.0,0.0,8.0484,-0.53033,,,,,8.0484,-0.530321,0.0140986,3.14893,0.0056
-0.14999,55216.734,3.5332,2.102,,,8.0749,-0.52994,,,,,8.0749,-0.529976,0.0136682,3.14893,0.0056
-0.15,55396.736,3.5309,2.1095,0.0,,8.1014,-0.52964,,,,,8.1014,-0.529598,0.0137529,3.14893,0.0056
-0.15,55576.736,3.5283,2.117,,0.0,8.1279,-0.52925,,,,,8.1279,-0.529251,0.013478,3.11883,0.0056
-0.15,55756.735,3.5261,2.1245,0.0,,8.1543,-0.52892,3.5261,2.1245,-3.125,-0.32,8.1543,-0.528897,0.0129318,3.11883,0.0056
-0.14999,55936.735,3.5236,2.132,,0.0,8.1807,-0.5285,,,,,8.1807,-0.528519,0.015031,3.08137,0.0056
-0.14998,56116.734,3.5211,2.1395,0.0,,8.2072,-0.52809,,,,,8.2072,-0.528132,0.013046,3.08137,0.0056
-0.14999,56296.736,3.5188,2.147,,0.0,8.2335,-0.52778,,,,,8.2335,-0.527775,0.0135386,3.00933,0.0056
-0.15,56476.736,3.5162,2.1545,,,8.2599,-0.52743,,,,,8.2599,-0.527436,0.0140469,3.00933,0.0056
-0.15,56656.737,3.5138,2.162,0.0,0.0,8.2863,-0.52707,3.5138,2.162,-2.95684,-0.338222,8.2863,-0.527024,0.0156363,3.00933,0.0056
-0.14998,56836.735,3.5112,2.1695,,,8.3126,-0.52661,,,,,8.3126,-0.526645,0.0153072,2.93725,0.0056
-0.15001,57016.737,3.5086,2.177,0.0,0.0,8.3389,-0.52633,,,,,8.3389,-0.526276,0.013545,2.93725,0.0056
-0.15001,57196.735,3.5061,2.1845,0.0,,8.3653,-0.52595,3.5061,2.1845,-2.87432,-0.348,8.3653,-0.525894,0.0147625,2.86606,0.0056
-0.15001,57376.736,3.5033,2.192,,0.0,8.3915,-0.52553,,,,,8.3915,-0.525508,0.0158271,2.86606,0.0056
-0.14999,57556.735,3.5008,2.1995,0.0,,8.4178,-0.52508,,,,,8.4178,-0.525073,0.0149103,2.78666,0.0056
-0.14999,57736.734,3.4981,2.207,,0.0,8.444,-0.52468,3.4981,2.207,-2.70665,-0.37,8.444,-0.524684,0.0144101,2.78666,0.0056
-0.14999,57916.734,3.4953,2.2145,0.0,0.0,8.4703,-0.52426,,,,,8.4703,-0.5243,0.0156485,2.69547,0.0056
-0.14999,58096.736,3.4927,2.222,,,8.4965,-0.52387,,,,,8.4965,-0.52386,0.0168073,2.69547,0.0056
-0.14999,58276.736,3.4897,2.2295,0.0,0.0,8.5226,-0.52342,3.4897,2.2295,-2.6704,-0.374667,8.5226,-0.523437,0.0164241,2.64254,0.0056
-0.14998,58456.735,3.4871,2.237,0.36938,2.6535,8.5488,-0.523,,,,,8.5488,-0.523021,0.0156579,2.64254,0.0056
-0.15,58636.735,3.4842,2.2445,,,8.5749,-0.52263,,,,,8.5749,-0.522602,0.0167886,2.6206,0.0056
-0.14999,58816.736,3.4812,2.252,0.0,2.6393,8.6011,-0.52215,,,,,8.6011,-0.522159,0.016869,2.6206,0.0056
-0.14999,58996.735,3.4784,2.2595,,,8.6272,-0.52173,3.4784,2.2595,-2.58206,-0.387333,8.6272,-0.521729,0.0161165,2.58682,0.0056
-0.15,59176.735,3.4754,2.267,0.0,,8.6532,-0.52131,,,,,8.6532,-0.521305,0.0172266,2.58682,0.0056
-0.14999,59356.735,3.4725,2.2745,,0.0,8.6793,-0.52084,,,,,8.6793,-0.520839,0.0174463,2.51842,0.0056
-0.15,59536.736,3.4694,2.282,0.0,0.0,8.7053,-0.52041,,,,,8.7053,-0.5204,0.0175455,2.51842,0.0056
-0.14999,59716.736,3.4664,2.2895,,2.4364,8.7313,-0.51993,3.4664,2.2895,-2.5,-0.4,8.7313,-0.519946,0.0172829,2.45733,0.0056
-0.15,59896.735,3.4634,2.297,0.0,,8.7573,-0.51951,,,,,8.7573,-0.519481,0.0181939,2.45733,0.0056
-0.15,60076.735,3.4602,2.3045,,,8.7833,-0.51903,,,,,8.7833,-0.519019,0.0183705,2.4427,0.0056
-0.14999,60256.734,3.4572,2.312,0.4104,0.0,8.8092,-0.51855,,,,,8.8092,-0.518529,0.0178647,2.46549,0.0056
-0.14999,60436.735,3.454,2.3195,,0.0,8.8351,-0.51807,3.454,2.3195,-2.38365,-0.42,8.8351,-0.518083,0.0174337,2.46549,0.0056
-0.14999,60616.736,3.451,2.327,0.0,,8.861,-0.51762,,,,,8.861,-0.517639,0.0167385,2.51757,0.0056
-0.15,60796.737,3.448,2.3345,,0.0,8.8869,-0.5172,,,,,8.8869,-0.51719,0.0180682,2.51757,0.0056
-0.14998,60976.735,3.445,2.342,0.0,0.0,8.9127,-0.51668,,,,,8.9127,-0.516718,0.0171844,2.64986,0.0056
-0.14999,61156.738,3.4422,2.3495,,,8.9385,-0.5163,3.4422,2.3495,-2.69851,-0.371111,8.9385,-0.516291,0.0161503,2.64986,0.0056
-0.14999,61336.736,3.4393,2.357,0.0,0.0,8.9643,-0.51586,,,,,8.9643,-0.515898,0.0154646,2.84691,0.0056
-0.14999,61516.736,3.4368,2.3645,,2.7688,8.9901,-0.51549,,,,,8.9901,-0.515482,0.015138,2.84691,0.0056
-0.15,61696.736,3.4341,2.372,0.0,,9.0159,-0.51512,3.4341,2.372,-2.94225,-0.342222,9.0159,-0.515105,0.0151908,3.0659,0.0056
-0.14999,61876.737,3.4318,2.3795,,2.9775,9.0416,-0.51474,,,,,9.0416,-0.514747,0.0127866,3.0659,0.0056
-0.15,62056.735,3.4294,2.387,0.0,,9.0674,-0.51441,,,,,9.0674,-0.514391,0.0137851,3.27026,0.0056
-0.14999,62236.735,3.427,2.3945,,0.0,9.0931,-0.51402,,,,,9.0931,-0.514054,0.0134679,3.27026,0.0056
-0.15,62416.736,3.4249,2.402,0.0,0.0,9.1188,-0.51374,,,,,9.1188,-0.513696,0.0132021,3.27026,0.0056
-0.14999,62596.735,3.4225,2.4095,,,9.1444,-0.51334,,,,,9.1444,-0.513373,0.0129262,3.40707,0.0056
-0.15,62776.735,3.4205,2.417,,0.0,9.1701,-0.51308,,,,,9.1701,-0.513055,0.0117091,3.40707,0.0056
-0.15,62956.736,3.4183,2.4245,0.0,,9.1957,-0.51275,3.4183,2.4245,-3.49951,-0.286061,9.1957,-0.512719,0.0134958,3.4217,0.0056
-0.14998,63136.737,3.4161,2.432,0.0,,9.2214,-0.51235,,,,,9.2214,-0.51239,0.0122159,3.4217,0.0056
-0.14999,63316.736,3.4139,2.4395,,0.0,9.247,-0.51205,3.4139,2.4395,-3.49951,-0.286061,9.247,-0.512071,0.011954,3.4217,0.0056
-0.15,63496.736,3.4117,2.447,0.0,3.4718,9.2726,-0.51176,,,,,9.2726,-0.511748,0.0132303,3.33051,0.0056
-0.14999,63676.736,3.4096,2.4545,,,9.2981,-0.51141,,,,,9.2981,-0.511408,0.0134853,3.33051,0.0056
-0.14999,63856.736,3.4072,2.462,0.29364,0.0,9.3237,-0.51105,,,,,9.3237,-0.511058,0.0138695,3.33051,0.0056
-0.14999,64036.737,3.4051,2.4695,,0.0,9.3492,-0.51073,,,,,9.3492,-0.510716,0.0132524,3.19087,0.0056
-0.14999,64216.736,3.4027,2.477,0.0,,9.3748,-0.51037,,,,,9.3748,-0.510383,0.0132236,3.19087,0.0056
-0.14999,64396.737,3.4002,2.4845,,0.0,9.4003,-0.51,,,,,9.4003,-0.510038,0.0138297,3.00202,0.0056
-0.15,64576.734,3.3979,2.492,0.0,,9.4258,-0.50969,3.3979,2.492,-2.97957,-0.336,9.4258,-0.509674,0.014806,3.00202,0.0056
-0.15,64756.734,3.3952,2.4995,0.0,0.0,9.4512,-0.50928,,,,,9.4512,-0.509284,0.0157507,2.77935,0.0056
-0.14999,64936.735,3.3926,2.507,,,9.4767,-0.50886,,,,,9.4767,-0.508871,0.0154518,2.77935,0.0056
-0.14999,65116.735,3.39,2.5145,0.0,0.0,9.5021,-0.50847,3.39,2.5145,-2.59463,-0.39,9.5021,-0.508467,0.0169135,2.51842,0.0056
-0.14999,65296.737,3.3869,2.522,0.36079,2.612,9.5275,-0.508,,,,,9.5275,-0.508032,0.0175342,2.51842,0.0056
-0.15,65476.735,3.3838,2.5295,,,9.5529,-0.50757,,,,,9.5529,-0.50755,0.0197469,2.25749,0.0056
-0.14999,65656.736,3.3803,2.537,0.0,,9.5783,-0.50701,,,,,9.5783,-0.507032,0.0219678,2.25749,0.0056
-0.14999,65836.736,3.3768,2.5445,0.44184,2.1365,9.6036,-0.50649,,,,,9.6036,-0.506505,0.0204315,2.0275,0.0056
-0.15,66016.735,3.3731,2.552,,,9.6289,-0.50597,,,,,9.6289,-0.505947,0.0235508,1.8195,0.0056
-0.15,66196.735,3.3688,2.5595,0.0,0.0,9.6542,-0.50532,,,,,9.6542,-0.505315,0.0265609,1.8195,0.0056
-0.14999,66376.737,3.3644,2.567,0.0,,9.6795,-0.50463,,,,,9.6795,-0.504625,0.0272568,1.64976,0.0056
-0.14999,66556.736,3.3596,2.5745,,,9.7047,-0.50391,,,,,9.7047,-0.5039,0.0300269,1.49917,0.0056
-0.15,66736.735,3.3542,2.582,,,9.7298,-0.50313,3.3542,2.582,-1.33381,-0.75,9.7298,-0.503113,0.0321272,1.34774,0.0056
-0.15,66916.736,3.3484,2.5895,0.0,,9.755,-0.50226,,,,,9.755,-0.502239,0.0374145,1.21909,0.0056
-0.14999,67096.735,3.342,2.597,0.0,0.0,9.7801,-0.50127,3.342,2.597,-1.13636,-0.88,9.7801,-0.501284,0.0402935,1.12874,0.0056
-0.15,67276.736,3.3352,2.6045,,1.087,9.8051,-0.50028,3.3352,2.6045,-1.02815,-0.973333,9.8051,-0.500248,0.0418527,1.0685,0.0056
-0.15001,67456.736,3.3276,2.612,0.98768,,9.8301,-0.49917,,,,,9.8301,-0.499138,0.0479428,0.959003,0.0056
-0.14999,67636.737,3.3193,2.6195,,0.92288,9.855,-0.49786,3.3193,2.6195,-0.84313,-1.18667,9.855,-0.497891,0.0525725,0.902437,0.0056
-0.14999,67816.737,3.3105,2.627,0.0,0.8292,9.8799,-0.49654,3.3105,2.627,-0.808132,-1.24,9.8799,-0.496531,0.0565685,0.79294,0.0056
-0.15,67996.735,3.3006,2.6345,0.0,0.75801,9.9046,-0.49509,3.3006,2.6345,-0.72526,-1.38,9.9046,-0.495066,0.0614862,0.717223,0.0056
-0.14999,68176.735,3.2901,2.642,0.0,0.69992,9.9294,-0.49348,3.2901,2.642,-0.668803,-1.5,9.9294,-0.493481,0.0673598,0.698916,0.0056
-0.14999,68356.737,3.2784,2.6495,0.0,0.64483,9.954,-0.49173,3.2784,2.6495,-0.633114,-1.58,9.954,-0.491756,0.0732859,0.615041,0.0056
-0.15,68536.736,3.266,2.657,1.651,0.58645,9.9785,-0.4899,3.266,2.657,-0.568182,-1.76,9.9785,-0.489884,0.0786845,0.596734,0.0056
-0.15,68716.735,3.2528,2.6645,,0.56746,10.003,-0.48792,3.2528,2.6645,-0.555556,-1.8,10.003,-0.487895,0.0845217,0.554796,0.0056
-0.14999,68896.736,3.2386,2.672,,0.5256,10.027,-0.48576,3.2386,2.672,-0.515573,-1.94,10.027,-0.485784,0.0911087,0.498231,0.0056
-0.14999,69076.734,3.2237,2.6795,2.0028,0.49305,10.052,-0.48352,3.2237,2.6795,-0.473043,-2.12,10.052,-0.483511,0.0925914,0.471765,0.0056
-0.14999,69256.736,3.2073,2.687,2.1997,0.45968,10.076,-0.48106,3.2073,2.687,-0.450524,-2.22,10.076,-0.481072,0.106026,0.464451,0.0056
-0.14999,69436.735,3.1897,2.6944,,0.41846,10.1,-0.47842,3.1897,2.6944,-0.406558,-2.46,10.1,-0.478437,0.114506,0.396049,0.0056
-0.14999,69616.736,3.1708,2.7019,,0.38543,10.123,-0.47559,3.1708,2.7019,-0.387643,-2.58,10.123,-0.475569,0.132925,0.377741,0.0056
-0.14999,69796.736,3.1503,2.7094,,0.35736,10.147,-0.47251,3.1503,2.7094,-0.354646,-2.82,10.147,-0.472522,0.13214,0.370426,0.0056
-0.14999,69976.736,3.1284,2.7169,,0.33259,10.171,-0.46923,3.1284,2.7169,-0.325114,-3.08,10.171,-0.469218,0.142855,0.328489,0.0056
-0.14999,70156.736,3.1044,2.7244,3.2237,0.30693,10.194,-0.46563,3.1044,2.7244,-0.304969,-3.28,10.194,-0.465635,0.155909,0.29471,0.0056
-0.15,70336.736,3.0782,2.7319,,0.27701,10.217,-0.46173,3.0782,2.7319,-0.27324,-3.66,10.217,-0.461735,0.182432,0.287395,0.0056
-0.14999,70516.737,3.0498,2.7394,3.8556,0.25443,10.24,-0.45744,3.0498,2.7394,-0.251574,-3.98,10.24,-0.457454,0.201346,0.268244,0.0056
-0.14999,70696.734,3.018,2.7469,4.2342,0.22842,10.263,-0.45267,3.018,2.7469,-0.22325,-4.48,10.263,-0.452714,0.208754,0.218993,0.0056
-0.15,70876.735,2.9827,2.7544,4.8363,0.20522,10.286,-0.44741,2.9827,2.7544,-0.199361,-5.02,10.286,-0.4474,0.253471,0.211678,0.0056
-0.15,71056.734,2.9424,2.7619,5.5477,0.17673,10.308,-0.44136,2.9424,2.7619,-0.174979,-5.72,10.308,-0.441396,0.289336,0.166062,0.0056
-0.15,71236.736,2.8954,2.7694,6.7033,0.14663,10.33,-0.43431,2.8954,2.7694,-0.143797,-6.98,10.33,-0.43439,0.352239,0.135962,0.0056
-0.14999,71416.735,2.8346,2.7769,9.3298,0.1058,10.351,-0.42516,2.8346,2.7769,-0.103148,-9.8,10.351,-0.425037,0.547214,0.109496,0.0056
-0.15,71596.736,2.7408,2.7844,14.756,0.066336,10.372,-0.41112,2.7408,2.7844,-0.066375,-15.12,10.372,-0.410996,0.787949,0.0757168,0.0056
-0.14999,71776.735,2.6193,2.7919,16.634,0.05927,10.392,-0.39287,2.6193,2.7919,-0.0600283,-16.66,10.392,-0.39282,0.971932,0.0565659,0.0056
-0.15,71949.849,2.5,2.7991,16.171,0.061643,10.411,-0.375,,,,,10.411,-0.374883,0.946876,0.102182,0.0056
-0.15,71949.862,2.5,2.7991,16.171,0.061643,10.411,-0.375,2.5,2.7991,-0.0616246,-16.0154,,,,0.102182,0.0056