File: Data/processed_data/Cycle 295_charge.csv
Current(A),Test_Time(s),Voltage(V),Charge_Capacity(Ah),dV/dQ(V/Ah),dQ/dV(Ah/V),Charge_Energy(Wh),Power(W),Downsampled Voltage (V),Downsampled Capacity (Ah),dQ/dV from downsampled Voltage (Ah/V),dV/dQ from downsampled Cpacity (V/Ah),Downsampled Energy (Wh),Downsampled Power (W),dP/dE from downsampled Energy (W/Wh),dQ/dV from LEAN (Ah/V),Delta_V (V) in LEAN
0.14996,1129.154,4.1999,0.03634,0.0,0.0,0.15262,0.62982,4.1999,0.03634,-0.00337172,-475.131,,,,2.451,0.0056
0.14998,79241.451,3.1144,0.04,4.1722,0.24283,0.12027,0.4671,3.1144,0.04,0.257457,-118.038,0.12027,0.467119,0.193877,3.22917,0.0056
0.15,79421.451,3.1431,0.0475,3.7377,0.27107,0.14374,0.47147,3.1431,0.0475,0.273632,3.66,0.14374,0.471431,0.173859,3.25458,0.0056
0.15,79601.452,3.1688,0.055,3.4493,0.2997,0.16741,0.47532,3.1688,0.055,0.304969,3.28,0.16741,0.47532,0.154821,3.27344,0.0056
0.14998,79781.452,3.1925,0.0625,3.0891,0.32705,0.19126,0.47881,3.1925,0.0625,0.335843,2.98,0.19126,0.47882,0.141072,3.33461,0.0056
0.14999,79961.453,3.214,0.07,2.865,0.35438,0.21529,0.48207,3.214,0.07,0.357289,2.8,0.21529,0.48207,0.128958,3.37038,0.0056
0.14999,80141.452,3.234,0.0775,2.6523,0.381,0.23947,0.48507,3.234,0.0775,0.397025,2.52,0.23947,0.485075,0.119516,3.34302,0.0056
0.15,80321.452,3.2526,0.085,2.448,0.41084,0.26379,0.48789,3.2526,0.085,0.413731,2.42,0.26379,0.48785,0.110445,3.43155,0.0056
0.14999,80501.454,3.2698,0.0925,,0.43415,0.28825,0.49044,3.2698,0.0925,0.450524,2.22,0.28825,0.49046,0.101402,3.44846,0.0056
0.14998,80681.451,3.2862,0.1,2.1758,0.46687,0.31283,0.49286,3.2862,0.1,0.486261,2.06,0.31283,0.492868,0.0956133,3.38533,0.0056
0.14999,80861.453,3.3013,0.10749,2.0187,0.49257,0.33753,0.49516,3.3013,0.10749,0.499439,2.00418,0.33753,0.495149,0.0892861,3.46342,0.0056
0.14999,81041.452,3.3155,0.11499,,0.52781,0.36235,0.49729,3.3155,0.11499,0.555556,1.8,0.36235,0.497308,0.0839119,3.60657,0.0056
0.14999,81221.452,3.3291,0.12249,,0.56264,0.38726,0.49933,3.3291,0.12249,0.568769,1.76,0.38726,0.499318,0.0779034,3.54345,0.0056
0.14999,81401.452,3.3415,0.12999,1.6787,0.60544,0.41228,0.50119,3.3415,0.12999,0.617472,1.62,0.41228,0.501205,0.0720768,3.60462,0.0056
0.14999,81581.452,3.3532,0.13749,1.5645,0.65189,0.43738,0.50295,3.3532,0.13749,0.695517,1.44,0.43738,0.502925,0.0656697,3.60462,0.0056
0.14999,81761.451,3.3634,0.14499,1.4258,0.73743,0.46257,0.50448,3.3634,0.14499,0.769943,1.3,0.46257,0.504484,0.0564554,3.7777,0.0056
0.15,81941.454,3.3719,0.15249,1.1726,0.93236,0.48782,0.50579,,,,,0.48782,0.50575,0.0438392,4.00539,0.0056
0.14999,82121.452,3.3783,0.15999,,1.1177,0.51314,0.50671,3.3783,0.15999,1.32035,0.77,0.51314,0.506706,0.0330911,4.28585,0.0056
0.15,82301.453,3.3832,0.16749,,,0.53849,0.50748,,,,,0.53849,0.507467,0.0273642,4.57277,0.0056
0.14998,82481.453,3.3875,0.17499,0.0,1.737,0.56388,0.50806,,,,,0.56388,0.508073,0.0213244,4.90396,0.0056
0.14998,82661.452,3.3908,0.18249,0.53443,,0.5893,0.50855,,,,,0.5893,0.508595,0.0196596,5.31517,0.0056
0.15,82841.451,3.3941,0.18999,,0.0,0.61474,0.50912,3.3941,0.18999,2.46528,0.41,0.61474,0.509081,0.0182665,5.31517,0.0056
0.14999,83021.451,3.397,0.19749,0.0,2.5161,0.6402,0.50952,,,,,0.6402,0.509518,0.0150443,5.72639,0.0056
0.15,83201.452,3.3995,0.20499,,,0.66569,0.50993,,,,,0.66569,0.509908,0.0150994,5.72639,0.0056
0.15,83381.453,3.4022,0.21249,,2.8427,0.69119,0.51033,3.4022,0.21249,3.01993,0.332,0.69119,0.510277,0.0149051,6.05758,0.0056
0.14999,83561.451,3.4044,0.21999,0.0,,0.71672,0.51063,,,,,0.71672,0.510649,0.0130725,6.05758,0.0056
0.14998,83741.451,3.4068,0.22749,,3.1847,0.74226,0.51095,,,,,0.74226,0.510984,0.0139102,6.32759,0.0056
0.15,83921.453,3.4091,0.23499,0.0,,0.76781,0.51137,,,,,0.76781,0.511324,0.0130072,6.32759,0.0056
0.14999,84101.452,3.4112,0.24249,0.30805,0.0,0.79339,0.51165,,,,,0.79339,0.511661,0.0120048,6.32759,0.0056
0.14999,84281.451,3.4134,0.24998,,0.0,0.81898,0.51198,,,,,0.81898,0.511944,0.0120909,6.56378,0.0056
0.14998,84461.451,3.4153,0.25748,0.0,,0.84458,0.51223,,,,,0.84458,0.512259,0.0124236,6.56378,0.0056
0.14999,84641.453,3.4174,0.26498,,,0.87021,0.51258,,,,,0.87021,0.512591,0.0137048,6.56378,0.0056
0.15,84821.453,3.4194,0.27248,0.0,0.0,0.89584,0.51291,,,,,0.89584,0.5129,0.0110593,6.75571,0.0056
0.14999,85001.451,3.4213,0.27998,0.27207,,0.92149,0.51316,,,,,0.92149,0.513183,0.0101273,6.75571,0.0056
0.14998,85181.452,3.4233,0.28748,,0.0,0.94716,0.51343,,,,,0.94716,0.513447,0.0107128,6.87806,0.0056
0.15,85361.452,3.4251,0.29498,0.0,,0.97284,0.51377,,,,,0.97284,0.513736,0.0108285,6.87806,0.0056
0.14999,85541.452,3.4272,0.30248,,3.9115,0.99853,0.51405,,,,,0.99853,0.514008,0.0111712,6.87806,0.0056
0.14999,85721.452,3.4289,0.30998,0.0,,1.0242,0.5143,,,,,1.0242,0.514307,0.0110987,6.91382,0.0056
0.14999,85901.452,3.4308,0.31748,0.25375,0.0,1.05,0.51459,,,,,1.05,0.514586,0.0112193,6.91382,0.0056
0.14998,86081.452,3.4329,0.32498,,,1.0757,0.51487,,,,,1.0757,0.514848,0.0107673,6.91382,0.0056
0.14998,86261.452,3.4346,0.33248,0.0,0.0,1.1014,0.51512,,,,,1.1014,0.515154,0.0116668,6.78307,0.0056
0.14999,86441.451,3.4367,0.33998,,,1.1272,0.51547,,,,,1.1272,0.515441,0.0117485,6.78307,0.0056
0.14998,86621.452,3.4386,0.34748,0.0,0.0,1.153,0.51572,,,,,1.153,0.51573,0.0110546,6.78307,0.0056
0.14999,86801.452,3.4406,0.35498,0.0,,1.1788,0.51606,,,,,1.1788,0.516058,0.0131268,6.53642,0.0056
0.14999,86981.451,3.4428,0.36248,0.0,,1.2046,0.51639,,,,,1.2046,0.516357,0.0116645,6.53642,0.0056
0.14998,87161.452,3.4447,0.36997,,0.0,1.2304,0.51664,,,,,1.2304,0.516676,0.0122351,6.53642,0.0056
0.14999,87341.453,3.447,0.37747,0.0,3.5269,1.2563,0.51702,,,,,1.2563,0.517001,0.0135822,6.29182,0.0056
0.14998,87521.452,3.4492,0.38497,,,1.2821,0.51731,,,,,1.2821,0.517339,0.012315,6.29182,0.0056
0.15,87701.453,3.4514,0.39247,0.28923,0.0,1.308,0.51771,,,,,1.308,0.517684,0.014211,6.11025,0.0056
0.14999,87881.452,3.454,0.39997,,0.0,1.3339,0.51807,3.454,0.39997,3.20513,0.312,1.3339,0.518035,0.0129316,6.11025,0.0056
0.14997,88061.452,3.4562,0.40747,0.0,,1.3598,0.51833,,,,,1.3598,0.518385,0.0144292,6.11025,0.0056
0.14999,88241.453,3.4589,0.41497,,0.0,1.3857,0.5188,,,,,1.3857,0.518783,0.0156653,5.88255,0.0056
0.14999,88421.454,3.4614,0.42247,0.32935,,1.4117,0.51918,,,,,1.4117,0.519175,0.0154144,5.88255,0.0056
0.14998,88601.451,3.4643,0.42997,,0.0,1.4377,0.51958,,,,,1.4377,0.519576,0.0163358,5.68017,0.0056
0.14999,88781.451,3.4668,0.43747,0.0,2.7318,1.4636,0.51999,,,,,1.4636,0.520021,0.0167303,5.68017,0.0056
0.14999,88961.453,3.4698,0.44497,,,1.4897,0.52044,3.4698,0.44497,2.59828,0.385,1.4897,0.520432,0.017055,5.58518,0.0056
0.14999,89141.453,3.4728,0.45247,,,1.5157,0.52089,,,,,1.5157,0.520859,0.0156271,5.58518,0.0056
0.14997,89321.451,3.4755,0.45997,0.0,0.0,1.5417,0.52122,,,,,1.5417,0.521294,0.0168354,5.53446,0.0056
0.14998,89501.451,3.4787,0.46747,,,1.5678,0.52174,,,,,1.5678,0.521723,0.0173941,5.53446,0.0056
0.14998,89681.453,3.4816,0.47496,0.39492,0.0,1.5939,0.52217,3.4816,0.47496,2.53116,0.395193,1.5939,0.522175,0.0164068,5.44593,0.0056
0.14998,89861.451,3.4846,0.48246,,0.0,1.62,0.52262,,,,,1.62,0.522638,0.0185971,5.44593,0.0056
0.14998,90041.452,3.4878,0.48996,0.0,2.4732,1.6462,0.5231,,,,,1.6462,0.523106,0.0182475,5.3744,0.0056
0.14999,90221.452,3.4907,0.49746,,,1.6723,0.52357,,,,,1.6723,0.523571,0.0166621,5.42902,0.0056
0.14997,90401.451,3.4939,0.50496,0.0,0.0,1.6985,0.52398,3.4939,0.50496,2.38095,0.42,1.6985,0.524017,0.01824,5.42902,0.0056
0.15,90581.453,3.4969,0.51246,,2.4533,1.7247,0.52454,,,,,1.7247,0.524499,0.0176593,5.45638,0.0056
0.14998,90761.452,3.4999,0.51996,0.0,,1.751,0.52492,,,,,1.751,0.524948,0.0165568,5.45638,0.0056
0.14998,90941.452,3.5031,0.52746,0.0,,1.7772,0.52539,,,,,1.7772,0.525387,0.0177334,5.41016,0.0056
0.14999,91121.452,3.5059,0.53496,,0.0,1.8035,0.52585,3.5059,0.53496,2.53896,0.395,1.8035,0.525868,0.0173353,5.41016,0.0056
0.14999,91301.452,3.509,0.54246,0.0,0.0,1.8298,0.52631,,,,,1.8298,0.526313,0.0167005,5.41016,0.0056
0.14998,91481.451,3.5122,0.54996,,2.4815,1.8562,0.52676,,,,,1.8562,0.526747,0.0167621,5.41016,0.0056
0.14999,91661.454,3.515,0.55746,0.0,,1.8825,0.52721,,,,,1.8825,0.527207,0.0171766,5.49019,0.0056
0.14998,91841.452,3.5181,0.56496,,,1.9089,0.52764,3.5181,0.56496,2.46989,0.405,1.9089,0.527659,0.0171395,5.49019,0.0056
0.14998,92021.452,3.5211,0.57246,0.40116,0.0,1.9353,0.52809,,,,,1.9353,0.528104,0.0171567,5.53446,0.0056
0.14999,92201.452,3.524,0.57996,,0.0,1.9617,0.52856,,,,,1.9617,0.528566,0.0169329,5.52401,0.0056
0.14999,92381.453,3.5271,0.58745,0.0,2.5303,1.9881,0.52903,,,,,1.9881,0.529009,0.0168031,5.52401,0.0056
0.14999,92561.453,3.5299,0.59495,,,2.0146,0.52945,3.5299,0.59495,2.63158,0.38,2.0146,0.529448,0.0166124,5.54942,0.0056
0.14999,92741.452,3.5329,0.60245,0.0,,2.0411,0.5299,,,,,2.0411,0.529892,0.0161278,5.54942,0.0056
0.14998,92921.451,3.5358,0.60995,,0.0,2.0676,0.5303,,,,,2.0676,0.530299,0.0150914,5.66521,0.0056
0.14998,93101.452,3.5385,0.61745,,,2.0941,0.5307,,,,,2.0941,0.530728,0.0167898,5.66521,0.0056
0.14999,93281.453,3.5414,0.62495,0.38086,0.0,2.1206,0.53117,,,,,2.1206,0.531156,0.0155454,5.70948,0.0056
0.14999,93461.451,3.544,0.63245,,0.0,2.1472,0.53156,,,,,2.1472,0.531565,0.0148813,5.70948,0.0056
0.14999,93641.453,3.5469,0.63995,0.0,2.7101,2.1738,0.532,,,,,2.1738,0.531971,0.0156177,5.66327,0.0056
0.14998,93821.452,3.5497,0.64745,,,2.2004,0.53238,3.5497,0.64745,2.73658,0.365556,2.2004,0.532388,0.0155313,5.66327,0.0056
0.14999,94001.451,3.5524,0.65495,,2.7169,2.227,0.53282,,,,,2.227,0.532804,0.0156319,5.68017,0.0056
0.14998,94181.454,3.5552,0.66245,0.0,,2.2537,0.53321,,,,,2.2537,0.533214,0.015162,5.68017,0.0056
0.14999,94361.453,3.5577,0.66995,,,2.2804,0.53362,3.5577,0.66995,2.82242,0.354444,2.2804,0.533644,0.0158757,5.82138,0.0056
0.15,94541.452,3.5606,0.67745,0.0,0.0,2.3071,0.53409,,,,,2.3071,0.534047,0.0144444,5.82138,0.0056
0.14998,94721.452,3.5631,0.68495,0.0,,2.3338,0.53439,,,,,2.3338,0.534422,0.0132186,5.82138,0.0056
0.14999,94901.453,3.5657,0.69245,,0.0,2.3605,0.53482,3.5657,0.69245,2.94427,0.340335,2.3605,0.534812,0.0152746,5.9964,0.0056
0.14999,95081.452,3.5684,0.69994,0.0,,2.3873,0.53522,,,,,2.3873,0.535178,0.0141297,5.9964,0.0056
0.14998,95261.452,3.5706,0.70744,,0.0,2.414,0.53552,,,,,2.414,0.535563,0.0139035,6.16947,0.0056
0.14998,95441.452,3.5732,0.71494,0.0,,2.4408,0.53591,,,,,2.4408,0.535927,0.0137162,6.16947,0.0056
0.14999,95621.451,3.5753,0.72244,,0.0,2.4676,0.53626,,,,,2.4676,0.536257,0.0116066,6.40567,0.0056
0.14999,95801.451,3.5775,0.72994,0.0,,2.4944,0.53659,,,,,2.4944,0.536592,0.0119806,6.40567,0.0056
0.14999,95981.453,3.5798,0.73744,,0.0,2.5213,0.53693,,,,,2.5213,0.536921,0.0121145,6.40567,0.0056
0.15,96161.451,3.5817,0.74494,,3.5228,2.5481,0.53726,3.5817,0.74494,3.61154,0.27697,2.5481,0.537232,0.0105889,6.66072,0.0056
0.14998,96341.452,3.5839,0.75244,0.0,,2.575,0.53751,,,,,2.575,0.537512,0.0110852,6.66072,0.0056
0.14999,96521.451,3.5858,0.75994,,,2.6019,0.53783,3.5858,0.75994,3.76836,0.265861,2.6019,0.537815,0.0114161,6.83379,0.0056
0.14998,96701.452,3.5877,0.76744,0.0,,2.6288,0.53808,,,,,2.6288,0.538097,0.0108075,6.83379,0.0056
0.14998,96881.453,3.5896,0.77494,,0.0,2.6557,0.53837,,,,,2.6557,0.538388,0.0107304,6.83379,0.0056
0.14999,97061.452,3.5914,0.78244,0.26033,,2.6826,0.53867,,,,,2.6826,0.53868,0.0107446,6.98996,0.0056
0.14998,97241.453,3.5934,0.78994,,0.0,2.7096,0.53894,,,,,2.7096,0.53895,0.0107526,6.98996,0.0056
0.14999,97421.453,3.5951,0.79744,0.0,,2.7365,0.53923,,,,,2.7365,0.539256,0.00991582,6.98996,0.0056
0.14999,97601.452,3.597,0.80494,,4.0796,2.7635,0.53951,,,,,2.7635,0.539524,0.0104481,7.20074,0.0056
0.15,97781.451,3.5988,0.81243,0.0,,2.7905,0.53982,,,,,2.7905,0.539791,0.00925408,7.20074,0.0056
0.14999,97961.453,3.6005,0.81993,,0.0,2.8175,0.54004,,,,,2.8175,0.540057,0.00919451,7.20074,0.0056
0.14998,98141.452,3.6025,0.82743,0.0,4.1879,2.8445,0.5403,,,,,2.8445,0.540288,0.00958301,7.38427,0.0056
0.14998,98321.451,3.6041,0.83493,,,2.8715,0.54054,,,,,2.8715,0.540569,0.00991323,7.38427,0.0056
0.14999,98501.452,3.6058,0.84243,0.0,0.0,2.8985,0.54083,3.6058,0.84243,4.4318,0.225714,2.8985,0.540828,0.0100078,7.38427,0.0056
0.14998,98681.451,3.6077,0.84993,,,2.9256,0.54108,,,,,2.9256,0.541085,0.00943926,7.38427,0.0056
0.14999,98861.452,3.6091,0.85743,0.0,0.0,2.9526,0.54133,,,,,2.9526,0.541352,0.0094863,7.53193,0.0056
0.14999,99041.452,3.611,0.86493,0.22884,,2.9797,0.54161,,,,,2.9797,0.541601,0.00905335,7.53193,0.0056
0.14998,99221.452,3.6126,0.87243,,,3.0068,0.54182,,,,,3.0068,0.541828,0.00790987,7.53193,0.0056
0.14998,99401.451,3.6141,0.87993,0.0,0.0,3.0339,0.54204,3.6141,0.87993,4.56517,0.21919,3.0339,0.542076,0.00979539,7.65428,0.0056
0.14999,99581.452,3.6159,0.88743,,,3.061,0.54235,,,,,3.061,0.542341,0.00935379,7.65428,0.0056
0.14998,99761.452,3.6174,0.89493,,,3.0881,0.54254,,,,,3.0881,0.542578,0.00749909,7.65428,0.0056
0.14999,99941.451,3.6189,0.90243,0.0,,3.1153,0.5428,,,,,3.1153,0.542796,0.00900598,7.65428,0.0056
0.14999,100121.453,3.6207,0.90993,,0.0,3.1424,0.54307,,,,,3.1424,0.543041,0.00885539,7.75122,0.0056
0.14999,100301.454,3.622,0.91743,0.0,4.7548,3.1696,0.54326,3.622,0.91743,4.79757,0.209143,3.1696,0.543285,0.00895709,7.75122,0.0056
0.14999,100481.453,3.6238,0.92493,,,3.1967,0.54353,,,,,3.1967,0.54352,0.0091026,7.75122,0.0056
0.14999,100661.452,3.6252,0.93243,0.0,0.0,3.2239,0.54374,,,,,3.2239,0.543745,0.00764075,7.76812,0.0056
0.14998,100841.452,3.6267,0.93993,,,3.2511,0.54393,,,,,3.2511,0.543952,0.00846333,7.76812,0.0056
0.14998,101021.453,3.6284,0.94742,0.0,0.0,3.2783,0.54419,,,,,3.2783,0.54418,0.00896283,7.76812,0.0056
0.14999,101201.452,3.6298,0.95492,,,3.3055,0.54443,3.6298,0.95492,4.83059,0.207548,3.3055,0.544443,0.00935676,7.76812,0.0056
0.14999,101381.453,3.6315,0.96242,0.20641,0.0,3.3328,0.54469,,,,,3.3328,0.54468,0.0081444,7.74927,0.0056
0.14999,101561.453,3.6328,0.96992,,0.0,3.36,0.54488,,,,,3.36,0.544911,0.00797023,7.74927,0.0056
0.15,101741.452,3.6346,0.97742,0.0,,3.3872,0.54519,,,,,3.3872,0.545149,0.00877039,7.74927,0.0056
0.15,101921.451,3.636,0.98492,,0.0,3.4145,0.5454,,,,,3.4145,0.545374,0.00737852,7.78503,0.0056
0.14999,102101.451,3.6375,0.99242,0.0,,3.4418,0.54559,,,,,3.4418,0.54559,0.00863367,7.78503,0.0056
0.14999,102281.452,3.6392,0.99992,,0.0,3.4691,0.54584,,,,,3.4691,0.545809,0.00852609,7.78503,0.0056
0.14999,102461.452,3.6406,1.0074,0.0,,3.4964,0.54605,,,,,3.4964,0.54605,0.0086849,7.78503,0.0056
0.14999,102641.452,3.6423,1.0149,0.0,4.8777,3.5237,0.54631,3.6423,1.0149,4.82964,0.207611,3.5237,0.546286,0.00944696,7.81239,0.0056
0.15,102821.451,3.6437,1.0224,,,3.551,0.54656,,,,,3.551,0.546532,0.00837624,7.81239,0.0056
0.15,103001.451,3.6451,1.0299,0.0,0.0,3.5783,0.54677,,,,,3.5783,0.546762,0.00862983,7.81239,0.0056
0.14999,103181.452,3.6469,1.0374,,,3.6057,0.547,,,,,3.6057,0.546989,0.00878865,7.81239,0.0056
0.14999,103361.452,3.6483,1.0449,0.0,0.0,3.633,0.54721,,,,,3.633,0.54724,0.0087118,7.76812,0.0056
0.15,103541.453,3.6498,1.0524,,,3.6604,0.54747,3.6498,1.0524,4.79862,0.209333,3.6604,0.547461,0.00775763,7.76812,0.0056
0.14998,103721.451,3.6516,1.0599,,0.0,3.6878,0.54767,,,,,3.6878,0.547674,0.00731505,7.76812,0.0056
0.14999,103901.453,3.653,1.0674,0.0,0.0,3.7152,0.54791,,,,,3.7152,0.547907,0.00930643,7.65428,0.0056
0.14999,104081.451,3.6548,1.0749,,,3.7426,0.54818,,,,,3.7426,0.548159,0.00874135,7.65428,0.0056
0.14999,104261.452,3.6562,1.0824,0.0,0.0,3.77,0.54839,,,,,3.77,0.548407,0.008759,7.65428,0.0056
0.14999,104441.453,3.658,1.0899,,,3.7974,0.54866,3.658,1.0899,4.6268,0.216143,3.7974,0.54864,0.00946874,7.65428,0.0056
0.14999,104621.452,3.6595,1.0974,0.0,0.0,3.8248,0.54889,,,,,3.8248,0.548892,0.0085224,7.53193,0.0056
0.14998,104801.453,3.6611,1.1049,0.2141,,3.8523,0.54909,,,,,3.8523,0.54914,0.00923641,7.53193,0.0056
0.14999,104981.453,3.6629,1.1124,,,3.8797,0.5494,,,,,3.8797,0.549378,0.00877768,7.53193,0.0056
0.14999,105161.452,3.6644,1.1199,0.0,0.0,3.9072,0.54962,,,,,3.9072,0.549623,0.00859476,7.40117,0.0056
0.14999,105341.453,3.6662,1.1274,,,3.9347,0.54989,3.6662,1.1274,4.48718,0.222857,3.9347,0.549869,0.00963439,7.40117,0.0056
0.14998,105521.452,3.6679,1.1349,0.0,,3.9622,0.55011,,,,,3.9622,0.550123,0.00935315,7.40117,0.0056
0.14999,105701.454,3.6695,1.1424,,0.0,3.9897,0.55039,,,,,3.9897,0.550395,0.0102327,7.40117,0.0056
0.14999,105881.452,3.6714,1.1499,0.22502,,4.0173,0.55067,,,,,4.0173,0.550655,0.00967407,7.26192,0.0056
0.14999,106061.451,3.673,1.1574,,,4.0448,0.55091,,,,,4.0448,0.550926,0.0100068,7.26192,0.0056
0.14999,106241.453,3.6749,1.1649,0.0,0.0,4.0723,0.5512,,,,,4.0723,0.551197,0.00968841,7.26192,0.0056
0.14998,106421.453,3.6767,1.1724,,,4.0999,0.55143,,,,,4.0999,0.551452,0.00946463,7.0869,0.0056
0.15,106601.451,3.6784,1.1799,0.0,0.0,4.1275,0.55176,,,,,4.1275,0.551723,0.0103223,7.0869,0.0056
0.14998,106781.451,3.6804,1.1874,,,4.1551,0.55199,,,,,4.1551,0.551995,0.00981175,7.0869,0.0056
0.14998,106961.452,3.6821,1.1949,,4.0617,4.1827,0.55224,3.6821,1.1949,3.95251,0.253407,4.1827,0.552277,0.0102589,6.89497,0.0056
0.14999,107141.452,3.6839,1.2024,0.0,,4.2103,0.55255,,,,,4.2103,0.552556,0.00984468,6.89497,0.0056
0.14998,107321.451,3.686,1.2099,,0.0,4.2379,0.55283,3.686,1.2099,3.84615,0.26,4.2379,0.552817,0.00920321,6.89497,0.0056
0.14999,107501.452,3.6877,1.2174,0.0,,4.2656,0.55312,,,,,4.2656,0.553114,0.0109747,6.72835,0.0056
0.14999,107681.451,3.6899,1.2249,,0.0,4.2933,0.55345,3.6899,1.2249,3.89742,0.256667,4.2933,0.553423,0.0117376,6.72835,0.0056
0.15,107861.451,3.6918,1.2324,,,4.3209,0.55377,,,,,4.3209,0.553739,0.0106188,6.72835,0.0056
0.14999,108041.453,3.6937,1.2399,0.0,0.0,4.3486,0.55402,3.6937,1.2399,3.73204,0.27,4.3486,0.554032,0.010301,6.6061,0.0056
0.14999,108221.453,3.6958,1.2474,,,4.3763,0.55433,,,,,4.3763,0.554328,0.0113905,6.6061,0.0056
0.15,108401.451,3.698,1.2549,0.0,,4.4041,0.5547,3.698,1.2549,3.62391,0.276667,4.4041,0.55463,0.0112289,6.55528,0.0056
0.14998,108581.454,3.7,1.2624,,0.0,4.4318,0.55493,,,,,4.4318,0.554945,0.0113054,6.55528,0.0056
0.14998,108761.451,3.702,1.2699,,3.5669,4.4596,0.55523,3.702,1.2699,3.58766,0.28,4.4596,0.555285,0.0129465,6.55528,0.0056
0.15,108941.453,3.7044,1.2774,0.0,,4.4873,0.55566,,,,,4.4873,0.555602,0.0112032,6.43303,0.0056
0.14999,109121.453,3.7064,1.2849,,0.0,4.5151,0.55592,3.7064,1.2849,3.44381,0.290424,4.5151,0.55594,0.0112414,6.43303,0.0056
0.14999,109301.452,3.7086,1.2924,0.0,0.0,4.5429,0.55625,,,,,4.5429,0.556263,0.0117202,6.43303,0.0056
0.14999,109481.453,3.711,1.2999,,,4.5707,0.55661,,,,,4.5707,0.556591,0.0115423,6.30023,0.0056
0.15,109661.452,3.7131,1.3074,0.0,,4.5986,0.55697,,,,,4.5986,0.556932,0.0125611,6.30023,0.0056
0.14999,109841.452,3.7156,1.3149,,0.0,4.6264,0.5573,,,,,4.6264,0.557273,0.0126037,6.21374,0.0056
0.14999,110021.454,3.7177,1.3224,0.0,,4.6543,0.55762,3.7177,1.3224,3.20935,0.312,4.6543,0.557624,0.012714,6.21374,0.0056
0.14998,110201.451,3.72,1.3299,,0.0,4.6822,0.55793,,,,,4.6822,0.557976,0.0130511,6.18833,0.0056
0.14999,110381.454,3.7226,1.3374,,3.1891,4.7101,0.55835,,,,,4.7101,0.558328,0.0126187,6.18833,0.0056
0.14999,110561.452,3.7248,1.3449,0.0,,4.738,0.55868,,,,,4.738,0.558696,0.0125498,6.18833,0.0056
0.14999,110741.452,3.7274,1.3524,,3.105,4.766,0.55907,,,,,4.766,0.559055,0.0131639,6.11875,0.0056
0.14999,110921.453,3.7297,1.3599,0.0,,4.7939,0.55942,3.7297,1.3599,3.07311,0.325556,4.7939,0.559425,0.0129247,6.11875,0.0056
0.14999,111101.451,3.7323,1.3674,,3.0876,4.8219,0.55981,,,,,4.8219,0.55979,0.0133569,6.01331,0.0056
0.14999,111281.453,3.7346,1.3749,0.0,,4.8499,0.56015,,,,,4.8499,0.560162,0.0131175,6.01331,0.0056
0.14999,111461.454,3.7371,1.3824,,3.0092,4.8779,0.56053,,,,,4.8779,0.560537,0.013714,5.91637,0.0056
0.14999,111641.452,3.7397,1.3899,0.0,,4.906,0.56092,,,,,4.906,0.5609,0.0127651,5.91637,0.0056
0.14999,111821.451,3.7421,1.3974,,2.9936,4.934,0.56128,3.7421,1.3974,2.97619,0.336,4.934,0.561279,0.0137803,5.91637,0.0056
0.14999,112001.452,3.7448,1.4049,0.0,,4.9621,0.56168,,,,,4.9621,0.56166,0.0140331,5.89946,0.0056
0.14999,112181.452,3.7471,1.4124,,2.9743,4.9902,0.56203,,,,,4.9902,0.562044,0.012301,5.89946,0.0056
0.14998,112361.452,3.7497,1.4199,0.0,,5.0183,0.56238,3.7497,1.4199,2.95684,0.338222,5.0183,0.562398,0.0138186,5.91832,0.0056
0.14999,112541.453,3.7524,1.4274,,2.967,5.0464,0.56282,,,,,5.0464,0.562782,0.0139674,5.91832,0.0056
0.14998,112721.452,3.7547,1.4349,0.0,,5.0746,0.56313,,,,,5.0746,0.563192,0.0138657,5.89946,0.0056
0.14999,112901.451,3.7575,1.4424,,2.9443,5.1027,0.56359,,,,,5.1027,0.563554,0.0136835,5.89946,0.0056
0.14998,113081.451,3.7598,1.4499,0.0,,5.1309,0.56389,,,,,5.1309,0.563945,0.0134132,5.91637,0.0056
0.14999,113261.452,3.7625,1.4574,,2.9418,5.1591,0.56434,,,,,5.1591,0.564342,0.0144039,5.91637,0.0056
0.14999,113441.453,3.7651,1.4649,0.0,,5.1874,0.56473,,,,,5.1874,0.564715,0.0129594,5.96259,0.0056
0.14998,113621.452,3.7675,1.4724,,2.9575,5.2156,0.56505,,,,,5.2156,0.565118,0.0136289,5.96259,0.0056
0.14999,113801.452,3.7702,1.4799,0.0,,5.2439,0.56549,3.7702,1.4799,2.97619,0.336,5.2439,0.565491,0.013462,5.96259,0.0056
0.15,113981.452,3.7726,1.4874,,2.9629,5.2722,0.56589,,,,,5.2722,0.565864,0.0123228,5.95213,0.0056
0.14999,114161.452,3.7751,1.4949,0.0,,5.3005,0.56623,,,,,5.3005,0.566252,0.0137401,5.95213,0.0056
0.15,114341.453,3.7777,1.5024,,2.9859,5.3288,0.56666,3.7777,1.5024,3.00649,0.332667,5.3288,0.566618,0.0128907,5.92487,0.0056
0.14999,114521.451,3.7801,1.5099,0.0,,5.3571,0.56698,,,,,5.3571,0.566999,0.012848,5.92487,0.0056
0.15,114701.453,3.7827,1.5174,,2.9868,5.3855,0.56741,,,,,5.3855,0.567376,0.013361,5.9879,0.0056
0.14999,114881.452,3.7852,1.5249,0.0,,5.4139,0.56774,,,,,5.4139,0.567737,0.0125082,5.9879,0.0056
0.15,115061.452,3.7875,1.5324,,3.0262,5.4423,0.56813,,,,,5.4423,0.568118,0.0132738,6.0049,0.0056
0.14998,115241.452,3.7902,1.5399,0.0,,5.4707,0.56845,3.7902,1.5399,3.04878,0.328,5.4707,0.568476,0.0128002,6.0049,0.0056
0.14999,115421.452,3.7925,1.5474,,3.0084,5.4991,0.56884,,,,,5.4991,0.568843,0.0129935,6.0049,0.0056
0.14999,115601.454,3.7951,1.5549,0.0,,5.5275,0.56923,,,,,5.5275,0.569226,0.0135761,6.01331,0.0056
0.14999,115781.452,3.7976,1.5624,,3.0248,5.556,0.5696,3.7976,1.5624,3.00649,0.332667,5.556,0.569589,0.0123764,6.01331,0.0056
0.14998,115961.453,3.7999,1.5699,0.0,,5.5845,0.56991,,,,,5.5845,0.569946,0.0121936,5.9964,0.0056
0.14998,116141.453,3.8026,1.5774,,3.029,5.613,0.57031,,,,,5.613,0.570301,0.0129653,5.9964,0.0056
0.14998,116321.452,3.8049,1.5849,0.0,,5.6415,0.57066,,,,,5.6415,0.570667,0.0124594,5.96064,0.0056
0.14998,116501.451,3.8074,1.5924,,3.0115,5.6701,0.57103,,,,,5.6701,0.571055,0.0140915,5.96064,0.0056
0.14999,116681.453,3.81,1.5999,0.0,,5.6986,0.57146,3.81,1.5999,3.01292,0.332,5.6986,0.571438,0.012762,5.93523,0.0056
0.14997,116861.451,3.8124,1.6074,,2.9996,5.7272,0.57175,,,,,5.7272,0.571811,0.0122905,5.93523,0.0056
0.14999,117041.452,3.815,1.6149,0.0,,5.7558,0.57221,,,,,5.7558,0.572174,0.0134515,5.93523,0.0056
0.14998,117221.452,3.8176,1.6224,,2.9693,5.7844,0.57256,3.8176,1.6224,2.92608,0.341778,5.7844,0.572552,0.0127071,5.88255,0.0056
0.14998,117401.452,3.8201,1.6299,0.0,,5.8131,0.57294,,,,,5.8131,0.572936,0.0137982,5.88255,0.0056
0.14997,117581.452,3.8228,1.6374,,2.9012,5.8417,0.57331,,,,,5.8417,0.573313,0.0138115,5.83829,0.0056
0.14998,117761.451,3.8252,1.6449,0.0,,5.8704,0.5737,,,,,5.8704,0.573733,0.0141827,5.83829,0.0056
0.14999,117941.452,3.8279,1.6524,,,5.8991,0.57415,,,,,5.8991,0.574124,0.0141812,5.80447,0.0056
0.14998,118121.451,3.8306,1.6599,0.0,0.0,5.9278,0.57451,,,,,5.9278,0.574527,0.0130816,5.80447,0.0056
0.14999,118301.452,3.8331,1.6674,0.0,,5.9566,0.57493,,,,,5.9566,0.574942,0.0153361,5.7433,0.0056
0.15,118481.453,3.8361,1.6749,,0.0,5.9853,0.57542,,,,,5.9853,0.575349,0.0135939,5.7433,0.0056
0.14998,118661.451,3.8387,1.6824,0.0,,6.0141,0.57573,,,,,6.0141,0.575772,0.014746,5.64636,0.0056
0.14999,118841.452,3.8417,1.6899,0.36389,0.0,6.0429,0.57622,3.8417,1.6899,2.63444,0.380222,6.0429,0.576179,0.0148796,5.64636,0.0056
0.14998,119021.452,3.8442,1.6974,,0.0,6.0717,0.57655,,,,,6.0717,0.576615,0.0141159,5.58518,0.0056
0.14999,119201.451,3.8473,1.7049,0.0,2.6718,6.1006,0.57706,,,,,6.1006,0.577034,0.0149099,5.58518,0.0056
0.14999,119381.451,3.8501,1.7124,,,6.1294,0.57748,3.8501,1.7124,2.66761,0.375,6.1294,0.577454,0.0144877,5.55137,0.0056
0.15,119561.453,3.8529,1.7199,0.0,2.5948,6.1583,0.57794,,,,,6.1583,0.577895,0.015659,5.55137,0.0056
0.14998,119741.452,3.8559,1.7274,0.0,,6.1872,0.57831,,,,,6.1872,0.578336,0.0151219,5.5071,0.0056
0.14999,119921.452,3.8587,1.7349,,,6.2161,0.57877,,,,,6.2161,0.578782,0.0160533,5.5071,0.0056
0.15,120101.452,3.8618,1.7424,0.39127,0.0,6.2451,0.57927,3.8618,1.7424,2.46989,0.405,6.2451,0.579228,0.0148271,5.47134,0.0056
0.14999,120281.451,3.8646,1.7499,,0.0,6.2741,0.57965,,,,,6.2741,0.579664,0.0147684,5.47134,0.0056
0.14999,120461.452,3.8677,1.7574,0.0,2.5429,6.3031,0.58012,,,,,6.3031,0.580092,0.0156928,5.52401,0.0056
0.14998,120641.452,3.8707,1.7649,,,6.3321,0.58053,,,,,6.3321,0.580535,0.0150746,5.52401,0.0056
0.14999,120821.452,3.8735,1.7724,0.0,,6.3611,0.58099,,,,,6.3611,0.580985,0.0163194,5.62945,0.0056
0.14999,121001.453,3.8765,1.7799,,0.0,6.3902,0.58144,,,,,6.3902,0.581422,0.014439,5.62945,0.0056
0.14998,121181.454,3.8791,1.7874,0.0,0.0,6.4193,0.58179,,,,,6.4193,0.581852,0.01432,5.77711,0.0056
0.15,121361.452,3.882,1.7949,0.37688,,6.4484,0.5823,3.882,1.7949,2.79718,0.358444,6.4484,0.582242,0.0132459,5.77711,0.0056
0.14999,121541.453,3.8844,1.8024,,0.0,6.4775,0.58262,,,,,6.4775,0.582632,0.0123844,5.99445,0.0056
0.14999,121721.451,3.8871,1.8099,0.0,,6.5066,0.58303,,,,,6.5066,0.583007,0.0133348,5.99445,0.0056
0.14999,121901.451,3.8895,1.8174,,0.0,6.5358,0.58339,,,,,6.5358,0.583356,0.0114447,6.34449,0.0056
0.14999,122081.453,3.8915,1.8249,0.33103,,6.565,0.58369,,,,,6.565,0.583697,0.0118707,6.34449,0.0056
0.14998,122261.452,3.8939,1.8324,,0.0,6.5942,0.58401,3.8939,1.8324,3.65171,0.275273,6.5942,0.584021,0.0112765,6.75571,0.0056
0.14998,122441.454,3.8959,1.8399,0.0,,6.6234,0.58431,,,,,6.6234,0.584332,0.0101579,6.75571,0.0056
0.14998,122621.451,3.8978,1.8474,,,6.6526,0.58459,3.8978,1.8474,3.90776,0.256044,6.6526,0.584624,0.01015,6.75571,0.0056
0.14998,122801.451,3.8999,1.8549,0.0,0.0,6.6818,0.58491,,,,,6.6818,0.584915,0.00974857,7.13116,0.0056
0.14999,122981.453,3.9016,1.8624,,,6.7111,0.5852,,,,,6.7111,0.585205,0.00918792,7.13116,0.0056
0.14998,123161.452,3.9035,1.8699,0.0,0.0,6.7403,0.58545,,,,,6.7403,0.585473,0.00906623,7.13116,0.0056
0.15,123341.451,3.9052,1.8774,,,6.7696,0.58578,,,,,6.7696,0.585734,0.00838642,7.43694,0.0056
0.14999,123521.452,3.9067,1.8849,0.0,0.0,6.7989,0.58597,,,,,6.7989,0.585987,0.00831113,7.43694,0.0056
0.14999,123701.452,3.9086,1.8924,0.0,0.0,6.8282,0.58625,,,,,6.8282,0.586232,0.00865043,7.43694,0.0056
0.15,123881.451,3.9101,1.8998,,,6.8575,0.58652,3.9101,1.8998,4.68264,0.213605,6.8575,0.586494,0.00870574,7.43694,0.0056
0.15,124061.453,3.9118,1.9073,,0.0,6.8869,0.58677,,,,,6.8869,0.586733,0.00765068,7.60356,0.0056
0.14998,124241.453,3.9133,1.9148,0.0,0.0,6.9162,0.58692,,,,,6.9162,0.586975,0.00805861,7.60356,0.0056
0.15,124421.452,3.9151,1.9223,,,6.9456,0.58727,,,,,6.9456,0.587226,0.00852362,7.60356,0.0056
0.15,124601.451,3.9164,1.9298,0.0,0.0,6.9749,0.58746,,,,,6.9749,0.587445,0.00630084,7.61196,0.0056
0.14999,124781.453,3.918,1.9373,,,7.0043,0.58766,3.918,1.9373,4.7448,0.210762,7.0043,0.587669,0.00836069,7.61196,0.0056
0.15,124961.451,3.9197,1.9448,0.0,0.0,7.0337,0.58796,,,,,7.0337,0.587893,0.00797655,7.61196,0.0056
0.14998,125141.452,3.9211,1.9523,0.21141,,7.0631,0.58809,,,,,7.0631,0.588137,0.0074818,7.61196,0.0056
0.14999,125321.452,3.9229,1.9598,,,7.0925,0.5884,,,,,7.0925,0.588363,0.00848794,7.46235,0.0056
0.15,125501.452,3.9243,1.9673,0.0,0.0,7.1219,0.58865,,,,,7.1219,0.588623,0.00812416,7.46235,0.0056
0.15,125681.453,3.926,1.9748,,,7.1514,0.5889,3.926,1.9748,4.45517,0.225286,7.1514,0.588891,0.00934304,7.46235,0.0056
0.15,125861.452,3.9279,1.9823,0.0,,7.1808,0.58919,,,,,7.1808,0.589129,0.00812997,7.27882,0.0056
0.14999,126041.452,3.9293,1.9898,,0.0,7.2103,0.58936,,,,,7.2103,0.589391,0.00924671,7.27882,0.0056
0.14999,126221.453,3.9313,1.9973,0.22116,,7.2398,0.58966,,,,,7.2398,0.589658,0.00976721,7.27882,0.0056
0.14999,126401.452,3.9331,2.0048,,,7.2693,0.58993,,,,,7.2693,0.589907,0.00789229,7.03617,0.0056
0.14999,126581.451,3.9347,2.0123,0.0,0.0,7.2988,0.59017,,,,,7.2988,0.590176,0.00933618,7.03617,0.0056
0.14999,126761.452,3.9368,2.0198,,,7.3283,0.59048,,,,,7.3283,0.590463,0.0103726,7.03617,0.0056
0.15,126941.452,3.9385,2.0273,0.0,0.0,7.3578,0.59078,,,,,7.3578,0.590756,0.00899933,6.71144,0.0056
0.14999,127121.451,3.9404,2.0348,,,7.3873,0.59102,,,,,7.3873,0.591047,0.010196,6.71144,0.0056
0.14999,127301.453,3.9427,2.0423,0.0,3.8032,7.4169,0.59137,,,,,7.4169,0.591353,0.0103225,6.71144,0.0056
0.15,127481.452,3.9446,2.0498,,,7.4465,0.59169,,,,,7.4465,0.591667,0.0109061,6.40372,0.0056
0.14999,127661.454,3.9469,2.0573,0.0,0.0,7.4761,0.592,,,,,7.4761,0.591988,0.0117738,6.40372,0.0056
0.14999,127841.452,3.9489,2.0648,,0.0,7.5057,0.5923,,,,,7.5057,0.592334,0.0107167,6.40372,0.0056
0.14999,128021.453,3.9512,2.0723,0.28648,,7.5353,0.59264,,,,,7.5353,0.592663,0.0122319,6.2495,0.0056
0.15,128201.452,3.9537,2.0798,,,7.5649,0.59306,3.9537,2.0798,3.24785,0.308,7.5649,0.592995,0.0115951,6.2495,0.0056
0.14998,128381.453,3.9558,2.0873,0.0,0.0,7.5946,0.59329,,,,,7.5946,0.593346,0.0114302,6.09334,0.0056
0.14998,128561.453,3.9585,2.0948,,,7.6243,0.5937,,,,,7.6243,0.593693,0.0132902,6.09334,0.0056
0.14999,128741.452,3.9608,2.1023,0.0,0.0,7.654,0.59408,,,,,7.654,0.594074,0.013189,5.88061,0.0056
0.14999,128921.453,3.9633,2.1098,0.0,,7.6837,0.59446,,,,,7.6837,0.594485,0.0137753,5.88061,0.0056
0.14999,129101.451,3.9661,2.1173,,0.0,7.7134,0.59488,3.9661,2.1173,2.8795,0.347333,7.7134,0.594862,0.0128134,5.88061,0.0056
0.14999,129281.453,3.9685,2.1248,0.0,,7.7432,0.59524,,,,,7.7432,0.595257,0.0133727,5.77711,0.0056
0.14999,129461.451,3.9714,2.1323,0.35001,0.0,7.7729,0.59567,,,,,7.7729,0.595656,0.0146004,5.77711,0.0056
0.14998,129641.451,3.9742,2.1398,,0.0,7.8027,0.59605,3.9742,2.1398,2.75127,0.363556,7.8027,0.596069,0.0134644,5.69257,0.0056
0.14998,129821.452,3.9769,2.1473,0.0,,7.8326,0.59646,,,,,7.8326,0.596507,0.0146575,5.69257,0.0056
0.14999,130001.452,3.98,2.1548,,0.0,7.8624,0.59696,,,,,7.8624,0.59691,0.0145974,5.52401,0.0056
0.14998,130181.452,3.9827,2.1623,,2.5668,7.8922,0.59733,,,,,7.8922,0.59736,0.0144047,5.52401,0.0056
0.14998,130361.452,3.9857,2.1698,0.0,,7.9221,0.59778,3.9857,2.1698,2.44193,0.41,7.9221,0.597823,0.016186,5.3744,0.0056
0.14999,130541.453,3.9889,2.1773,,,7.952,0.5983,,,,,7.952,0.598279,0.0152575,5.38475,0.0056
0.14999,130721.453,3.9918,2.1848,0.40294,0.0,7.982,0.59873,,,,,7.982,0.598741,0.0148198,5.38475,0.0056
0.14998,130901.453,3.9951,2.1923,,0.0,8.0119,0.59919,,,,,8.0119,0.599188,0.0159615,5.40371,0.0056
0.14999,131081.453,3.9982,2.1998,0.0,2.4033,8.0419,0.59969,3.9982,2.1998,2.41034,0.415,8.0419,0.599675,0.0158846,5.40371,0.0056
0.14999,131261.452,4.0013,2.2073,0.41742,,8.0719,0.60015,,,,,8.0719,0.600135,0.015514,5.36784,0.0056
0.14998,131441.452,4.0046,2.2148,,0.0,8.1019,0.60061,,,,,8.1019,0.600605,0.0157762,5.36784,0.0056
0.14999,131621.451,4.0076,2.2223,0.0,2.3404,8.1319,0.6011,,,,,8.1319,0.601104,0.0163788,5.27941,0.0056
0.14998,131801.453,4.0111,2.2298,,,8.162,0.60158,,,,,8.162,0.60158,0.0162716,5.27941,0.0056
0.14999,131981.452,4.0141,2.2373,0.0,,8.1921,0.60207,4.0141,2.2373,2.38365,0.42,8.1921,0.60209,0.0160268,5.2709,0.0056
0.14999,132161.454,4.0173,2.2448,,2.333,8.2222,0.60255,,,,,8.2222,0.602561,0.0157692,5.29826,0.0056
0.14999,132341.451,4.0207,2.2523,0.0,,8.2523,0.60306,,,,,8.2523,0.603026,0.0155022,5.29826,0.0056
0.14999,132521.451,4.0237,2.2598,0.0,,8.2825,0.60351,,,,,8.2825,0.60352,0.0159766,5.33208,0.0056
0.14999,132701.452,4.0271,2.2673,,0.0,8.3127,0.60402,,,,,8.3127,0.603984,0.0153754,5.33208,0.0056
0.14998,132881.452,4.0301,2.2748,0.0,0.0,8.3429,0.60443,4.0301,2.2748,2.46989,0.405,8.3429,0.604462,0.0152958,5.39325,0.0056
0.15,133061.452,4.0331,2.2823,,2.4098,8.3731,0.60497,,,,,8.3731,0.604927,0.0156771,5.39325,0.0056
0.14998,133241.453,4.0363,2.2898,0.0,,8.4034,0.60536,,,,,8.4034,0.605365,0.0139895,5.49019,0.0056
0.14998,133421.453,4.0391,2.2973,,,8.4337,0.60578,,,,,8.4337,0.60583,0.0150811,5.49019,0.0056
0.14999,133601.454,4.0422,2.3048,,0.0,8.464,0.60629,4.0422,2.3048,2.5,0.4,8.464,0.606267,0.0152438,5.55137,0.0056
0.14999,133781.452,4.0452,2.3123,0.0,0.0,8.4943,0.60674,,,,,8.4943,0.606709,0.0132348,5.60209,0.0056
0.14998,133961.453,4.0478,2.3198,,2.6035,8.5247,0.60709,,,,,8.5247,0.607116,0.0141515,5.60209,0.0056
0.14998,134141.452,4.0508,2.3273,0.0,,8.555,0.60754,,,,,8.555,0.607539,0.0143622,5.72444,0.0056
0.14998,134321.453,4.0534,2.3348,0.0,,8.5854,0.60793,,,,,8.5854,0.607982,0.0132833,5.72444,0.0056
0.14999,134501.452,4.0563,2.3423,,0.0,8.6158,0.6084,,,,,8.6158,0.608367,0.0125595,5.95213,0.0056
0.14999,134681.454,4.0588,2.3498,0.0,,8.6462,0.60878,,,,,8.6462,0.608752,0.0127727,5.95213,0.0056
0.14999,134861.453,4.0613,2.3573,0.3538,0.0,8.6767,0.60915,,,,,8.6767,0.609157,0.0127393,5.95213,0.0056
0.14998,135041.452,4.0639,2.3648,,,8.7072,0.6095,,,,,8.7072,0.609527,0.0125866,6.24755,0.0056
0.15,135221.454,4.0661,2.3723,0.0,0.0,8.7376,0.60992,4.0661,2.3723,3.25663,0.308,8.7376,0.609882,0.0112734,6.24755,0.0056
0.14998,135401.452,4.0685,2.3798,,,8.7681,0.61019,,,,,8.7681,0.610222,0.0103778,6.76022,0.0056
0.14999,135581.454,4.0706,2.3873,0.0,0.0,8.7987,0.61055,,,,,8.7987,0.610537,0.0100575,6.76022,0.0056
0.14999,135761.452,4.0726,2.3948,0.0,3.4932,8.8292,0.61085,,,,,8.8292,0.610839,0.00888752,6.76022,0.0056
0.14999,135941.453,4.0746,2.4023,,,8.8598,0.61115,,,,,8.8598,0.611114,0.00951846,7.13466,0.0056
0.15,136121.453,4.0762,2.4098,0.0,0.0,8.8903,0.61143,,,,,8.8903,0.611407,0.00858586,7.13466,0.0056
0.14999,136301.452,4.0777,2.4173,,,8.9209,0.61161,,,,,8.9209,0.61165,0.00762718,7.13466,0.0056
0.14999,136481.454,4.0793,2.4248,0.0,,8.9515,0.61185,,,,,8.9515,0.611839,0.00597719,6.48233,0.0056
0.14999,136661.452,4.0803,2.4323,,0.0,8.9821,0.612,,,,,8.9821,0.612015,0.00512363,6.48233,0.0056
0.14998,136841.451,4.0815,2.4398,0.20712,,9.0127,0.61214,,,,,9.0127,0.612157,0.00528246,6.48233,0.0056
0.14999,137021.451,4.0823,2.4473,,6.4358,9.0433,0.6123,,,,,9.0433,0.612304,0.00332739,6.48233,0.0056
0.14997,137141.453,4.083,2.4523,,0.0,9.0637,0.61233,4.083,2.4523,7.5,0.129949,9.0637,0.61234,0.000925545,6.48233,0.0056