File: Data/processed_data/Cycle 970_charge.csv
Current(A),Test_Time(s),Voltage(V),Charge_Capacity(Ah),dV/dQ(V/Ah),dQ/dV(Ah/V),Charge_Energy(Wh),Power(W),Downsampled Voltage (V),Downsampled Capacity (Ah),dQ/dV from downsampled Voltage (Ah/V),dV/dQ from downsampled Cpacity (V/Ah),Downsampled Energy (Wh),Downsampled Power (W),dP/dE from downsampled Energy (W/Wh),dQ/dV from LEAN (Ah/V),Delta_V (V) in LEAN
0.15,1350.906,4.2001,0.06462,0.0,0.0,0.27207,0.63002,4.2001,0.06462,-0.00036912,-3042.16,,,,1.8168,0.0056
0.14997,76246.488,3.2519,0.06497,2.7191,0.38011,0.20374,0.48769,3.2519,0.06497,0.393282,-2376.13,0.20374,0.487704,0.120561,,0.0056
0.14998,76366.489,3.2647,0.06997,,0.3941,0.22003,0.48964,3.2647,0.06997,0.400461,2.5,0.22003,0.48963,0.113832,3.6751,0.0056
0.14998,76486.488,3.2766,0.07497,2.4011,0.42111,0.23638,0.49142,3.2766,0.07497,0.434848,2.3,0.23638,0.491426,0.106301,3.73338,0.0056
0.14998,76606.487,3.2881,0.07996,2.3082,0.43837,0.25278,0.49315,3.2881,0.07996,0.43802,2.28475,0.25278,0.493135,0.102549,3.69121,0.0056
0.14997,76726.487,3.2991,0.08496,2.2127,0.45717,0.26924,0.49477,3.2991,0.08496,0.467371,2.14,0.26924,0.494778,0.0973159,3.72528,0.0056
0.14998,76846.488,3.3094,0.08996,2.1255,0.47722,0.28575,0.49634,3.3094,0.08996,0.495147,2.02,0.28575,0.496352,0.0929565,3.78356,0.0056
0.14998,76966.489,3.3195,0.09496,2.0262,0.49924,0.30232,0.49786,3.3195,0.09496,0.505154,1.98,0.30232,0.49786,0.0885134,3.82387,0.0056
0.14998,77086.488,3.3289,0.09996,1.9421,0.51884,0.31893,0.49927,3.3289,0.09996,0.542951,1.84386,0.31893,0.499288,0.0840779,3.87591,0.0056
0.14997,77206.487,3.3381,0.10495,1.8492,0.55016,0.3356,0.50061,3.3381,0.10495,0.555556,1.8,0.3356,0.50065,0.0791834,3.83998,0.0056
0.14997,77326.486,3.347,0.10995,1.7632,0.57706,0.3523,0.50195,3.347,0.10995,0.589703,1.7,0.3523,0.501941,0.0757602,3.90011,0.0056
0.14997,77446.486,3.3551,0.11495,0.0,0.59221,0.36905,0.50316,3.3551,0.11495,0.617472,1.62,0.36905,0.50319,0.0729341,3.89016,0.0056
0.14997,77566.489,3.3632,0.11995,,0.63267,0.38584,0.50438,3.3632,0.11995,0.660088,1.52274,0.38584,0.504378,0.0687719,3.9664,0.0056
0.14998,77686.487,3.3704,0.12494,,,0.40266,0.50549,3.3704,0.12494,0.715453,1.4,0.40266,0.505491,0.0632234,4.00671,0.0056
0.14997,77806.487,3.3773,0.12994,1.4078,0.73304,0.41952,0.50649,3.3773,0.12994,0.763871,1.32667,0.41952,0.506501,0.0562076,4.11517,0.0056
0.14998,77926.487,3.3832,0.13494,0.0,0.8037,0.43642,0.50741,3.3832,0.13494,0.901291,1.11333,0.43642,0.507402,0.0509617,4.2658,0.0056
0.14998,78046.488,3.3884,0.13994,,0.8957,0.45334,0.50819,,,,,0.45334,0.508209,0.0430634,4.43068,0.0056
0.14998,78166.488,3.393,0.14493,,1.0401,0.47029,0.50888,,,,,0.47029,0.508859,0.0352217,4.68791,0.0056
0.14996,78286.486,3.3966,0.14993,0.87576,1.2678,0.48725,0.50935,,,,,0.48725,0.509412,0.0295424,4.68791,0.0056
0.14998,78406.488,3.3999,0.15493,0.0,0.0,0.50424,0.50992,,,,,0.50424,0.509881,0.0271228,5.07966,0.0056
0.14997,78526.487,3.4025,0.15993,0.0,,0.52124,0.51027,3.4025,0.15993,1.91257,0.526974,0.52124,0.510321,0.0230425,5.54579,0.0056
0.14998,78646.489,3.4051,0.16493,0.0,,0.53825,0.5107,,,,,0.53825,0.510672,0.0195848,5.54579,0.0056
0.14997,78766.486,3.4073,0.16992,,2.0395,0.55527,0.51099,,,,,0.55527,0.511001,0.0188041,5.54579,0.0056
0.14997,78886.489,3.4092,0.17492,,0.0,0.57231,0.51128,,,,,0.57231,0.511305,0.0178571,6.01193,0.0056
0.14998,79006.489,3.4112,0.17992,,0.0,0.58935,0.51161,,,,,0.58935,0.5116,0.0163692,6.01193,0.0056
0.14998,79126.488,3.4129,0.18492,,,0.6064,0.51187,,,,,0.6064,0.511876,0.0153874,6.01193,0.0056
0.14998,79246.489,3.4147,0.18992,,,0.62346,0.51214,,,,,0.62346,0.512123,0.0149113,6.43589,0.0056
0.14998,79366.488,3.4162,0.19491,0.36958,2.9462,0.64053,0.51236,,,,,0.64053,0.51237,0.0141858,6.43589,0.0056
0.14999,79486.488,3.4178,0.19991,0.0,,0.65761,0.51264,3.4178,0.19991,3.18316,0.315422,0.65761,0.512611,0.0135953,6.43589,0.0056
0.14999,79606.487,3.4194,0.20491,0.0,,0.6747,0.51288,,,,,0.6747,0.512845,0.0133134,6.77746,0.0056
0.14999,79726.487,3.4207,0.20991,0.0,,0.69179,0.51307,,,,,0.69179,0.513063,0.0126883,6.77746,0.0056
0.14998,79846.486,3.4223,0.21491,0.0,,0.70889,0.51328,3.4223,0.21491,3.52712,0.284841,0.70889,0.513271,0.0120199,6.77746,0.0056
0.14998,79966.487,3.4236,0.2199,0.0,,0.726,0.51347,,,,,0.726,0.513479,0.011727,6.77746,0.0056
0.14998,80086.487,3.425,0.2249,0.0,,0.74312,0.51368,,,,,0.74312,0.513677,0.0117046,7.01048,0.0056
0.14997,80206.487,3.4265,0.2299,0.29455,3.5486,0.76024,0.51387,,,,,0.76024,0.513883,0.0120849,7.01048,0.0056
0.14998,80326.487,3.4278,0.2349,0.0,0.0,0.77736,0.5141,,,,,0.77736,0.514087,0.0120894,7.01048,0.0056
0.14998,80446.487,3.4291,0.23989,0.0,0.0,0.7945,0.5143,,,,,0.7945,0.514296,0.0114691,7.01048,0.0056
0.14998,80566.487,3.4305,0.24489,0.0,0.0,0.81164,0.51451,,,,,0.81164,0.514482,0.0109008,7.12518,0.0056
0.14998,80686.489,3.4316,0.24989,0.0,3.7771,0.82879,0.51467,,,,,0.82879,0.514681,0.0123386,7.12518,0.0056
0.14998,80806.488,3.4331,0.25489,0.0,0.0,0.84594,0.5149,,,,,0.84594,0.514892,0.0124043,7.12518,0.0056
0.14998,80926.488,3.4344,0.25989,0.0,0.0,0.8631,0.51509,,,,,0.8631,0.515087,0.00993377,7.12518,0.0056
0.14998,81046.487,3.4355,0.26488,0.0,0.0,0.88027,0.51526,,,,,0.88027,0.515263,0.0102014,7.12518,0.0056
0.14998,81166.488,3.4369,0.26988,,3.9149,0.89744,0.51547,,,,,0.89744,0.515439,0.0106976,7.20143,0.0056
0.14997,81286.488,3.438,0.27488,,0.0,0.91462,0.5156,3.438,0.27488,4.0023,0.249973,0.91462,0.51563,0.0119867,7.20143,0.0056
0.14998,81406.487,3.4393,0.27988,,0.0,0.93181,0.51583,,,,,0.93181,0.515827,0.0111022,7.20143,0.0056
0.14998,81526.487,3.4407,0.28487,,0.0,0.949,0.51604,,,,,0.949,0.516023,0.0106212,7.20143,0.0056
0.14998,81646.487,3.4418,0.28987,,3.9636,0.9662,0.5162,3.4418,0.28987,3.91917,0.255182,0.9662,0.5162,0.0105406,7.19333,0.0056
0.14998,81766.487,3.4432,0.29487,,0.0,0.9834,0.51641,,,,,0.9834,0.516394,0.0115385,7.19333,0.0056
0.14998,81886.487,3.4444,0.29987,,0.0,1.0006,0.51659,,,,,1.0006,0.516586,0.0109096,7.19333,0.0056
0.14997,82006.488,3.4456,0.30487,,0.0,1.0178,0.51674,,,,,1.0178,0.516767,0.010825,7.19333,0.0056
0.14997,82126.487,3.447,0.30986,,,1.0351,0.51695,,,,,1.0351,0.516957,0.010852,7.19333,0.0056
0.14998,82246.486,3.4481,0.31486,,,1.0523,0.51715,,,,,1.0523,0.517145,0.0110239,7.0589,0.0056
0.14998,82366.488,3.4494,0.31986,,,1.0695,0.51734,,,,,1.0695,0.517344,0.0119303,7.0589,0.0056
0.14998,82486.488,3.451,0.32486,,,1.0868,0.51758,,,,,1.0868,0.517545,0.0114442,7.0589,0.0056
0.14998,82606.486,3.4521,0.32986,,,1.104,0.51775,,,,,1.104,0.517748,0.0116205,7.0589,0.0056
0.14998,82726.486,3.4536,0.33486,,,1.1213,0.51797,,,,,1.1213,0.517944,0.0116027,6.91003,0.0056
0.14997,82846.486,3.4549,0.33985,,,1.1385,0.51813,,,,,1.1385,0.518155,0.0129894,6.91003,0.0056
0.14998,82966.487,3.4561,0.34485,0.2643,,1.1558,0.51835,,,,,1.1558,0.518371,0.0120203,6.91003,0.0056
0.14998,83086.487,3.4577,0.34985,0.0,,1.1731,0.51859,,,,,1.1731,0.518588,0.0121992,6.91003,0.0056
0.14998,83206.487,3.459,0.35485,0.0,,1.1904,0.51878,,,,,1.1904,0.518795,0.0118148,6.68511,0.0056
0.14998,83326.488,3.4605,0.35984,0.0,,1.2077,0.51901,,,,,1.2077,0.518999,0.0124941,6.68511,0.0056
0.14998,83446.486,3.4618,0.36484,0.0,3.5263,1.225,0.5192,3.4618,0.36484,3.39667,0.296106,1.225,0.519222,0.0131355,6.68511,0.0056
0.14998,83566.486,3.4635,0.36984,0.0,0.0,1.2423,0.51946,,,,,1.2423,0.519453,0.0128902,6.68511,0.0056
0.14998,83686.487,3.465,0.37484,0.0,0.0,1.2596,0.51968,,,,,1.2596,0.519679,0.0132765,6.48421,0.0056
0.14997,83806.488,3.4664,0.37983,0.29165,3.3183,1.2769,0.51986,,,,,1.2769,0.519899,0.0131985,6.48421,0.0056
0.14997,83926.487,3.4682,0.38483,0.0,0.0,1.2942,0.52013,,,,,1.2942,0.520143,0.0140649,6.48421,0.0056
0.14998,84046.488,3.4697,0.38983,0.0,0.0,1.3116,0.52039,3.4697,0.38983,3.05113,0.328125,1.3116,0.520377,0.0133054,6.29522,0.0056
0.14997,84166.488,3.4713,0.39483,0.0,3.1119,1.3289,0.52059,,,,,1.3289,0.520611,0.0141688,6.29522,0.0056
0.14998,84286.487,3.4731,0.39983,0.0,0.0,1.3463,0.5209,,,,,1.3463,0.520876,0.0154451,6.29522,0.0056
0.14999,84406.486,3.4747,0.40482,0.0,0.0,1.3636,0.52117,,,,,1.3636,0.521129,0.0141506,6.29522,0.0056
0.14997,84526.487,3.4763,0.40982,0.32922,2.9511,1.381,0.52134,,,,,1.381,0.521382,0.0149774,6.09432,0.0056
0.14998,84646.487,3.4783,0.41482,0.0,0.0,1.3984,0.52168,3.4783,0.41482,2.89648,0.345461,1.3984,0.521641,0.0151217,6.09432,0.0056
0.14997,84766.487,3.4799,0.41982,0.0,0.0,1.4158,0.52188,,,,,1.4158,0.521909,0.0153505,6.09432,0.0056
0.14997,84886.488,3.4817,0.42482,0.0,2.7797,1.4332,0.52215,3.4817,0.42482,2.80058,0.359701,1.4332,0.522173,0.0160074,5.88551,0.0056
0.14998,85006.487,3.4838,0.42982,0.0,0.0,1.4506,0.5225,,,,,1.4506,0.522469,0.0163781,5.88551,0.0056
0.14998,85126.488,3.4855,0.43482,0.0,0.0,1.468,0.52276,,,,,1.468,0.522757,0.0167114,5.88551,0.0056
0.14998,85246.488,3.4874,0.43981,,,1.4854,0.52304,,,,,1.4854,0.523034,0.0164104,5.79492,0.0056
0.14997,85366.488,3.4895,0.44481,,,1.5029,0.52332,,,,,1.5029,0.523325,0.0169006,5.79492,0.0056
0.14998,85486.488,3.4913,0.44981,,2.5616,1.5203,0.52363,,,,,1.5203,0.523635,0.0175126,5.79492,0.0056
0.14998,85606.488,3.4935,0.45481,,0.0,1.5378,0.52396,,,,,1.5378,0.523937,0.0172592,5.73674,0.0056
0.14997,85726.487,3.4953,0.45981,,0.0,1.5552,0.52419,,,,,1.5552,0.524233,0.0171873,5.73674,0.0056
0.14998,85846.487,3.4974,0.46481,,,1.5727,0.52454,,,,,1.5727,0.52454,0.0173797,5.73674,0.0056
0.14998,85966.487,3.4995,0.46981,,,1.5902,0.52486,,,,,1.5902,0.524848,0.0171478,5.72863,0.0056
0.14997,86086.487,3.5014,0.4748,,2.4423,1.6077,0.5251,,,,,1.6077,0.525132,0.0168795,5.72863,0.0056
0.14997,86206.487,3.5036,0.4798,,0.0,1.6252,0.52543,,,,,1.6252,0.525436,0.0177466,5.71253,0.0056
0.14998,86326.489,3.5057,0.4848,,0.0,1.6427,0.52578,3.5057,0.4848,2.35984,0.42381,1.6427,0.525756,0.0180052,5.71253,0.0056
0.14998,86446.488,3.5077,0.4898,,,1.6603,0.52608,,,,,1.6603,0.526076,0.0185579,5.71253,0.0056
0.14998,86566.486,3.5099,0.4948,,,1.6778,0.52641,3.5099,0.4948,2.44193,0.41,1.6778,0.526394,0.0182163,5.69456,0.0056
0.14998,86686.486,3.5118,0.4998,,2.4015,1.6953,0.5267,,,,,1.6953,0.526703,0.0172231,5.69456,0.0056
0.14998,86806.489,3.5139,0.5048,,0.0,1.7129,0.52701,3.5139,0.5048,2.46868,0.405208,1.7129,0.52701,0.0175423,5.69456,0.0056
0.14998,86926.487,3.5161,0.50979,0.41677,0.0,1.7305,0.52734,,,,,1.7305,0.527323,0.0178276,5.71253,0.0056
0.14998,87046.487,3.518,0.51479,0.0,,1.7481,0.52763,3.518,0.51479,2.3824,0.4202,1.7481,0.527638,0.0183894,5.71253,0.0056
0.14998,87166.489,3.5202,0.51979,0.0,,1.7656,0.52796,,,,,1.7656,0.527954,0.017284,5.72863,0.0056
0.14998,87286.488,3.5223,0.52479,0.0,2.3953,1.7832,0.52827,3.5223,0.52479,2.35359,0.425,1.7832,0.528249,0.0165338,5.72863,0.0056
0.14997,87406.488,3.5243,0.52979,0.0,0.0,1.8009,0.52854,,,,,1.8009,0.528551,0.0175171,5.72863,0.0056
0.14998,87526.488,3.5265,0.53479,0.41261,2.4431,1.8185,0.5289,3.5265,0.53479,2.44065,0.410195,1.8185,0.528865,0.0184278,5.75284,0.0056
0.14998,87646.487,3.5283,0.53979,0.0,0.0,1.8361,0.52917,,,,,1.8361,0.529186,0.0172348,5.75284,0.0056
0.14998,87766.486,3.5305,0.54478,0.0,0.0,1.8537,0.5295,3.5305,0.54478,2.56626,0.390205,1.8537,0.529479,0.0162968,5.75284,0.0056
0.14997,87886.489,3.5325,0.54978,0.0,,1.8714,0.52977,,,,,1.8714,0.52977,0.0164551,5.82098,0.0056
0.14997,88006.489,3.5343,0.55478,0.0,,1.8891,0.53004,3.5343,0.55478,2.53896,0.395,1.8891,0.530059,0.0172175,5.82098,0.0056
0.14997,88126.487,3.5365,0.55978,0.4032,2.487,1.9067,0.53037,,,,,1.9067,0.53037,0.0176356,5.82098,0.0056
0.14998,88246.488,3.5384,0.56478,0.0,0.0,1.9244,0.53069,3.5384,0.56478,2.43902,0.41,1.9244,0.530685,0.0173533,5.84519,0.0056
0.14998,88366.488,3.5405,0.56978,0.0,0.0,1.9421,0.531,,,,,1.9421,0.530987,0.0166558,5.84519,0.0056
0.14998,88486.488,3.5425,0.57478,0.0,,1.9598,0.5313,3.5425,0.57478,2.46862,0.405198,1.9598,0.531279,0.0171844,5.8613,0.0056
0.14998,88606.487,3.5443,0.57977,0.0,,1.9775,0.53157,,,,,1.9775,0.531581,0.0166996,5.8613,0.0056
0.14998,88726.489,3.5465,0.58477,0.39687,2.5404,1.9952,0.5319,3.5465,0.58477,2.6041,0.385208,1.9952,0.531875,0.0166206,5.8613,0.0056
0.14998,88846.488,3.5483,0.58977,0.0,0.0,2.013,0.53217,,,,,2.013,0.532167,0.0159946,5.89537,0.0056
0.14998,88966.488,3.5502,0.59477,0.0,0.0,2.0307,0.53246,3.5502,0.59477,2.63523,0.38,2.0307,0.532456,0.0163602,5.89537,0.0056
0.14998,89086.486,3.5522,0.59977,0.0,2.5704,2.0485,0.53276,,,,,2.0485,0.532745,0.0164016,5.89537,0.0056
0.14997,89206.488,3.5541,0.60477,0.0,0.0,2.0662,0.53301,3.5541,0.60477,2.59695,0.385188,2.0662,0.533036,0.0163019,5.93568,0.0056
0.14997,89326.487,3.5562,0.60977,0.38836,0.0,2.084,0.53332,,,,,2.084,0.533322,0.0163092,5.93568,0.0056
0.14998,89446.489,3.5579,0.61476,0.0,,2.1018,0.53361,3.5579,0.61476,2.59695,0.385188,2.1018,0.533617,0.0158787,5.93568,0.0056
0.14998,89566.487,3.5599,0.61976,0.0,,2.1196,0.53391,,,,,2.1196,0.533896,0.0156355,6.04414,0.0056
0.14997,89686.487,3.5618,0.62476,0.0,2.6669,2.1374,0.53416,3.5618,0.62476,2.66331,0.376667,2.1374,0.534169,0.0151004,6.04414,0.0056
0.14998,89806.488,3.5634,0.62976,0.0,0.0,2.1552,0.53444,,,,,2.1552,0.534446,0.0164283,6.04414,0.0056
0.14997,89926.488,3.5655,0.63476,0.0,0.0,2.173,0.53472,,,,,2.173,0.534733,0.0157692,6.16256,0.0056
0.14998,90046.487,3.5671,0.63976,,2.7317,2.1908,0.53499,,,,,2.1908,0.535008,0.0153874,6.16256,0.0056
0.14998,90166.488,3.5691,0.64476,,0.0,2.2087,0.53529,,,,,2.2087,0.535282,0.014515,6.16256,0.0056
0.14999,90286.487,3.5707,0.64975,,0.0,2.2265,0.53557,,,,,2.2265,0.535541,0.0151272,6.21088,0.0056
0.14998,90406.489,3.5724,0.65475,,,2.2444,0.53579,,,,,2.2444,0.535813,0.0146207,6.21088,0.0056
0.14999,90526.488,3.5743,0.65975,,,2.2622,0.53611,3.5743,0.65975,2.94816,0.339907,2.2622,0.536059,0.0139044,6.21088,0.0056
0.14997,90646.487,3.5758,0.66475,,,2.2801,0.53626,,,,,2.2801,0.536309,0.013702,6.21088,0.0056
0.14998,90766.487,3.5776,0.66975,,,2.298,0.53657,3.5776,0.66975,3.07311,0.325556,2.298,0.536558,0.014469,6.25119,0.0056
0.14998,90886.488,3.5793,0.67475,,,2.3159,0.53682,,,,,2.3159,0.536808,0.0127633,6.25119,0.0056
0.14997,91006.488,3.5808,0.67975,,,2.3338,0.53701,,,,,2.3338,0.537039,0.0135825,6.25119,0.0056
0.14998,91126.487,3.5826,0.68475,,,2.3517,0.53732,,,,,2.3517,0.537289,0.0144807,6.39372,0.0056
0.14998,91246.487,3.5841,0.68974,,,2.3696,0.53754,,,,,2.3696,0.537547,0.0138909,6.39372,0.0056
0.14998,91366.487,3.5857,0.69474,,,2.3875,0.53778,3.5857,0.69474,3.12772,0.320135,2.3875,0.537777,0.0126857,6.39372,0.0056
0.14998,91486.487,3.5874,0.69974,,,2.4054,0.53804,,,,,2.4054,0.538011,0.0122655,6.56856,0.0056
0.14998,91606.488,3.5888,0.70474,,,2.4233,0.53825,,,,,2.4233,0.538241,0.013901,6.56856,0.0056
0.14997,91726.488,3.5905,0.70974,,,2.4413,0.53847,,,,,2.4413,0.53848,0.0129894,6.56856,0.0056
0.14998,91846.486,3.5919,0.71474,,3.2052,2.4592,0.53871,,,,,2.4592,0.538715,0.0132488,6.56856,0.0056
0.14998,91966.487,3.5934,0.71974,,0.0,2.4772,0.53894,,,,,2.4772,0.53895,0.0117893,6.7514,0.0056
0.14998,92086.488,3.5951,0.72473,,0.0,2.4952,0.53919,,,,,2.4952,0.539166,0.0124772,6.7514,0.0056
0.14997,92206.488,3.5963,0.72973,0.30626,3.334,2.5131,0.53934,,,,,2.5131,0.539374,0.0113146,6.7514,0.0056
0.14997,92326.487,3.598,0.73473,0.0,0.0,2.5311,0.53959,3.598,0.73473,3.46879,0.288727,2.5311,0.539589,0.0124242,6.7514,0.0056
0.14998,92446.488,3.5993,0.73973,0.0,0.0,2.5491,0.53982,,,,,2.5491,0.539816,0.0120322,6.93424,0.0056
0.14997,92566.489,3.6007,0.74473,0.0,0.0,2.5671,0.54,,,,,2.5671,0.54003,0.0118543,6.93424,0.0056
0.14997,92686.487,3.6022,0.74973,0.0,,2.5851,0.54022,3.6022,0.74973,3.61427,0.276757,2.5851,0.540231,0.0109836,6.93424,0.0056
0.14997,92806.488,3.6034,0.75473,0.0,,2.6031,0.5404,,,,,2.6031,0.540429,0.0116691,6.93424,0.0056
0.14997,92926.486,3.6049,0.75972,0.0,,2.6211,0.54063,,,,,2.6211,0.54065,0.0123882,7.12518,0.0056
0.14999,93046.487,3.6063,0.76472,0.28042,,2.6392,0.54091,3.6063,0.76472,3.80726,0.263428,2.6392,0.540869,0.0117712,7.12518,0.0056
0.14999,93166.488,3.6074,0.76972,0.0,,2.6572,0.54107,,,,,2.6572,0.541075,0.0106181,7.12518,0.0056
0.14999,93286.486,3.6089,0.77472,0.0,,2.6752,0.5413,,,,,2.6752,0.541253,0.0106349,7.12518,0.0056
0.14998,93406.486,3.6101,0.77972,0.0,,2.6933,0.54144,3.6101,0.77972,3.94605,0.253418,2.6933,0.541447,0.0101289,7.30988,0.0056
0.14998,93526.487,3.6115,0.78472,0.0,3.8486,2.7113,0.54165,,,,,2.7113,0.541625,0.0103896,7.30988,0.0056
0.14998,93646.487,3.6126,0.78971,0.0,0.0,2.7294,0.54182,,,,,2.7294,0.54182,0.0100654,7.30988,0.0056
0.14998,93766.489,3.6139,0.79471,0.0,0.0,2.7474,0.54201,3.6139,0.79471,4.00339,0.249909,2.7474,0.542,0.0096745,7.30988,0.0056
0.14997,93886.488,3.6152,0.79971,0.0,0.0,2.7655,0.54217,,,,,2.7655,0.542169,0.0100505,7.41648,0.0056
0.14997,94006.488,3.6162,0.80471,0.25393,0.0,2.7836,0.54232,,,,,2.7836,0.54236,0.0103191,7.41648,0.0056
0.14998,94126.487,3.6176,0.80971,0.0,,2.8016,0.54257,,,,,2.8016,0.542541,0.0102187,7.41648,0.0056
0.14997,94246.488,3.6187,0.81471,0.0,,2.8197,0.5427,,,,,2.8197,0.542732,0.00954442,7.41648,0.0056
0.14998,94366.487,3.62,0.81971,0.0,,2.8378,0.54293,,,,,2.8378,0.542898,0.0100898,7.41648,0.0056
0.14997,94486.489,3.6211,0.8247,0.0,,2.8559,0.54306,,,,,2.8559,0.54308,0.00940629,7.51508,0.0056
0.14998,94606.488,3.6222,0.8297,0.0,,2.874,0.54326,3.6222,0.8297,4.20707,0.238373,2.874,0.543249,0.0103296,7.51508,0.0056
0.14997,94726.487,3.6236,0.8347,0.0,,2.8921,0.54343,,,,,2.8921,0.543436,0.00917925,7.51508,0.0056
0.14998,94846.487,3.6246,0.8397,0.0,,2.9102,0.54362,,,,,2.9102,0.543605,0.0100798,7.51508,0.0056
0.14997,94966.487,3.6259,0.8447,0.0,,2.9284,0.54378,3.6259,0.8447,4.27748,0.235282,2.9284,0.543784,0.0094233,7.51508,0.0056
0.14998,95086.487,3.6269,0.8497,,,2.9465,0.54396,,,,,2.9465,0.543952,0.0097141,7.67557,0.0056
0.14997,95206.487,3.6282,0.85469,,0.0,2.9646,0.54412,,,,,2.9646,0.54412,0.00835621,7.67557,0.0056
0.14998,95326.487,3.6292,0.85969,,0.0,2.9828,0.54431,,,,,2.9828,0.544286,0.0102646,7.67557,0.0056
0.14998,95446.487,3.6303,0.86469,,0.0,3.0009,0.54447,3.6303,0.86469,4.3361,0.231473,3.0009,0.544474,0.0103611,7.67557,0.0056
0.14998,95566.487,3.6316,0.86969,,4.351,3.0191,0.54467,,,,,3.0191,0.544651,0.0094134,7.67557,0.0056
0.14998,95686.487,3.6326,0.87469,,0.0,3.0372,0.54482,,,,,3.0372,0.544822,0.00855097,7.74195,0.0056
0.14998,95806.489,3.6339,0.87969,,0.0,3.0554,0.54501,3.6339,0.87969,4.38639,0.229329,3.0554,0.544977,0.00918605,7.74195,0.0056
0.14997,95926.489,3.6349,0.88469,,0.0,3.0735,0.54513,,,,,3.0735,0.545149,0.0096128,7.74195,0.0056
0.14998,96046.488,3.636,0.88969,0.22786,0.0,3.0917,0.54533,,,,,3.0917,0.545322,0.00965939,7.74195,0.0056
0.14998,96166.488,3.6372,0.89468,0.0,,3.1099,0.54551,,,,,3.1099,0.545505,0.00932163,7.74195,0.0056
0.14998,96286.487,3.6382,0.89968,0.0,,3.1281,0.54566,3.6382,0.89968,4.45403,0.225334,3.1281,0.545674,0.00943818,7.7481,0.0056
0.14997,96406.488,3.6395,0.90468,0.0,,3.1463,0.54582,,,,,3.1463,0.545823,0.00779459,7.7481,0.0056
0.14997,96526.487,3.6404,0.90968,0.0,,3.1644,0.54595,,,,,3.1644,0.545985,0.00959973,7.7481,0.0056
0.14998,96646.486,3.6416,0.91468,0.0,4.4768,3.1827,0.54617,,,,,3.1827,0.546153,0.00864035,7.7481,0.0056
0.14997,96766.488,3.6428,0.91968,0.0,0.0,3.2009,0.54631,,,,,3.2009,0.546315,0.00923362,7.7481,0.0056
0.14997,96886.487,3.6438,0.92467,0.0,0.0,3.2191,0.54646,,,,,3.2191,0.546476,0.00916464,7.75806,0.0056
0.14998,97006.488,3.645,0.92967,0.0,0.0,3.2373,0.54668,,,,,3.2373,0.546649,0.00945959,7.75806,0.0056
0.14998,97126.487,3.6459,0.93467,0.22311,0.0,3.2555,0.54681,3.6459,0.93467,4.58247,0.220055,3.2555,0.546822,0.00949051,7.75806,0.0056
0.14998,97246.487,3.6472,0.93967,0.0,,3.2737,0.54701,,,,,3.2737,0.546989,0.00920761,7.75806,0.0056
0.14998,97366.487,3.6483,0.94467,0.0,,3.292,0.54717,,,,,3.292,0.547161,0.00912897,7.75806,0.0056
0.14998,97486.489,3.6493,0.94967,0.0,,3.3102,0.54732,,,,,3.3102,0.547311,0.00792065,7.76606,0.0056
0.14997,97606.488,3.6506,0.95467,0.0,,3.3285,0.54748,,,,,3.3285,0.547472,0.00926009,7.76606,0.0056
0.14998,97726.487,3.6515,0.95967,0.0,4.5263,3.3467,0.54765,,,,,3.3467,0.547645,0.00955949,7.76606,0.0056
0.14997,97846.487,3.6528,0.96466,0.0,0.0,3.365,0.54781,,,,,3.365,0.54781,0.00858179,7.76606,0.0056
0.14997,97966.488,3.6537,0.96966,0.0,0.0,3.3832,0.54795,,,,,3.3832,0.547973,0.00988951,7.76606,0.0056
0.14998,98086.488,3.6548,0.97466,0.0,0.0,3.4015,0.54815,,,,,3.4015,0.548155,0.00924076,7.72399,0.0056
0.14998,98206.489,3.6561,0.97966,0.22146,0.0,3.4198,0.54834,,,,,3.4198,0.548327,0.0100736,7.72399,0.0056
0.14998,98326.487,3.6571,0.98466,0.0,,3.438,0.54849,,,,,3.438,0.548507,0.00873414,7.72399,0.0056
0.14999,98446.488,3.6584,0.98966,0.0,,3.4563,0.54872,,,,,3.4563,0.548668,0.00916887,7.72399,0.0056
0.14997,98566.488,3.6593,0.99466,0.0,,3.4746,0.54879,,,,,3.4746,0.548824,0.0086091,7.72399,0.0056
0.14997,98686.487,3.6606,0.99965,0.0,,3.4929,0.54898,,,,,3.4929,0.548985,0.00949542,7.67557,0.0056
0.14998,98806.487,3.6617,1.0047,0.0,4.4292,3.5112,0.54918,,,,,3.5112,0.549173,0.00951415,7.67557,0.0056
0.14998,98926.488,3.6628,1.0097,0.0,0.0,3.5295,0.54935,,,,,3.5295,0.549344,0.00945286,7.67557,0.0056
0.14997,99046.488,3.6641,1.0147,0.0,0.0,3.5478,0.54951,,,,,3.5478,0.549517,0.0100075,7.67557,0.0056
0.14998,99166.487,3.665,1.0196,0.0,0.0,3.5661,0.54968,,,,,3.5661,0.549683,0.00869055,7.67557,0.0056
0.14998,99286.487,3.6662,1.0246,0.22786,0.0,3.5845,0.54986,3.6662,1.0246,4.19626,0.238897,3.5845,0.549859,0.00961751,7.51693,0.0056
0.14998,99406.488,3.6676,1.0296,0.0,,3.6028,0.55007,,,,,3.6028,0.550044,0.0100649,7.51693,0.0056
0.14998,99526.486,3.6686,1.0346,0.0,,3.6211,0.55022,,,,,3.6211,0.550223,0.0101152,7.51693,0.0056
0.14997,99646.488,3.6699,1.0396,0.0,,3.6395,0.55037,3.6699,1.0396,4.20827,0.238315,3.6395,0.55039,0.00840171,7.51693,0.0056
0.14998,99766.487,3.6709,1.0446,0.0,,3.6578,0.55056,,,,,3.6578,0.550554,0.00974967,7.51693,0.0056
0.14997,99886.487,3.6723,1.0496,0.0,,3.6762,0.55073,,,,,3.6762,0.550739,0.00939218,7.32413,0.0056
0.14998,100006.487,3.6734,1.0546,0.0,,3.6945,0.55094,,,,,3.6945,0.55092,0.0105684,7.32413,0.0056
0.14998,100126.487,3.6745,1.0596,0.0,,3.7129,0.5511,,,,,3.7129,0.551105,0.00977085,7.32413,0.0056
0.14997,100246.487,3.676,1.0646,0.0,,3.7313,0.55129,,,,,3.7313,0.551297,0.0109754,7.32413,0.0056
0.14998,100366.488,3.677,1.0696,,,3.7496,0.55148,,,,,3.7496,0.551484,0.00931535,7.17536,0.0056
0.14997,100486.487,3.6784,1.0746,,,3.768,0.55165,,,,,3.768,0.55166,0.0101002,7.17536,0.0056
0.14997,100606.489,3.6797,1.0796,,,3.7864,0.55184,,,,,3.7864,0.551847,0.0103426,7.17536,0.0056
0.14998,100726.488,3.6808,1.0846,,,3.8048,0.55205,,,,,3.8048,0.552049,0.0112719,7.17536,0.0056
0.14998,100846.487,3.6822,1.0896,,,3.8232,0.55226,3.6822,1.0896,3.866,0.258681,3.8232,0.552252,0.0104767,7.17536,0.0056
0.14998,100966.486,3.6834,1.0946,,,3.8416,0.55244,,,,,3.8416,0.552441,0.0107072,7.06691,0.0056
0.14998,101086.487,3.6846,1.0996,,,3.86,0.55262,,,,,3.86,0.552636,0.0100132,7.06691,0.0056
0.14998,101206.488,3.6861,1.1046,0.25361,,3.8785,0.55284,3.6861,1.1046,3.79869,0.263333,3.8785,0.552819,0.00998609,7.06691,0.0056
0.14997,101326.487,3.6872,1.1096,0.0,,3.8969,0.55297,,,,,3.8969,0.553006,0.0101449,7.06691,0.0056
0.14998,101446.488,3.6885,1.1146,0.0,,3.9153,0.5532,,,,,3.9153,0.553203,0.0116295,6.99252,0.0056
0.14997,101566.487,3.6901,1.1196,0.0,,3.9338,0.5534,3.6901,1.1196,3.75,0.266667,3.9338,0.553407,0.010106,6.99252,0.0056
0.14997,101686.487,3.6913,1.1246,0.0,,3.9522,0.55358,,,,,3.9522,0.553601,0.0115236,6.99252,0.0056
0.14998,101806.487,3.6927,1.1296,,,3.9707,0.55383,,,,,3.9707,0.553821,0.0108461,6.99252,0.0056
0.14998,101926.488,3.6941,1.1346,,,3.9891,0.55404,3.6941,1.1346,3.70483,0.27,3.9891,0.554016,0.011304,6.90203,0.0056
0.14996,102046.487,3.6954,1.1396,,,4.0076,0.55416,,,,,4.0076,0.554216,0.0110413,6.90203,0.0056
0.14998,102166.487,3.6969,1.1446,,3.6169,4.0261,0.55446,,,,,4.0261,0.554437,0.0127364,6.90203,0.0056
0.14998,102286.486,3.6982,1.1496,,0.0,4.0445,0.55466,3.6982,1.1496,3.55933,0.281333,4.0445,0.554664,0.0111026,6.90203,0.0056
0.14998,102406.488,3.6996,1.1546,,0.0,4.063,0.55487,,,,,4.063,0.554871,0.0110981,6.7675,0.0056
0.14998,102526.488,3.7012,1.1596,,0.0,4.0815,0.55511,,,,,4.0815,0.555073,0.0111077,6.7675,0.0056
0.14997,102646.487,3.7024,1.1646,,,4.1,0.55525,,,,,4.1,0.555281,0.0121899,6.7675,0.0056
0.14997,102766.487,3.7041,1.1696,,,4.1185,0.5555,,,,,4.1185,0.555511,0.0127638,6.7675,0.0056
0.14999,102886.487,3.7054,1.1746,,,4.1371,0.55577,,,,,4.1371,0.555758,0.0125438,6.62683,0.0056
0.14998,103006.487,3.7071,1.1796,,3.4177,4.1556,0.55599,,,,,4.1556,0.555981,0.0114998,6.62683,0.0056
0.14998,103126.487,3.7084,1.1846,,0.0,4.1741,0.55619,,,,,4.1741,0.556191,0.0122775,6.62683,0.0056
0.14998,103246.487,3.7099,1.1896,,0.0,4.1927,0.55641,3.7099,1.1896,3.24785,0.308,4.1927,0.556419,0.0123943,6.62683,0.0056
0.14998,103366.486,3.7116,1.1946,,3.3202,4.2112,0.55667,,,,,4.2112,0.556651,0.0121515,6.50218,0.0056
0.14998,103486.488,3.713,1.1996,,0.0,4.2298,0.55688,,,,,4.2298,0.556885,0.012333,6.50218,0.0056
0.14998,103606.487,3.7147,1.2046,,0.0,4.2483,0.55713,,,,,4.2483,0.557099,0.0116901,6.50218,0.0056
0.14997,103726.487,3.716,1.2096,0.30429,0.0,4.2669,0.55729,,,,,4.2669,0.557326,0.0131499,6.38386,0.0056
0.14998,103846.487,3.7177,1.2146,0.0,,4.2855,0.55758,3.7177,1.2146,3.16557,0.316,4.2855,0.557568,0.0128241,6.38386,0.0056
0.14998,103966.487,3.7194,1.2196,0.0,,4.3041,0.55784,,,,,4.3041,0.557817,0.0128078,6.38386,0.0056
0.14998,104086.487,3.7208,1.2246,0.0,,4.3227,0.55805,,,,,4.3227,0.558052,0.0127403,6.38386,0.0056
0.14998,104206.487,3.7226,1.2296,0.0,,4.3413,0.55832,,,,,4.3413,0.558285,0.0126635,6.37761,0.0056
0.14997,104326.486,3.724,1.2346,0.0,,4.3599,0.55849,,,,,4.3599,0.558522,0.0131592,6.37761,0.0056
0.14998,104446.488,3.7256,1.2396,0.0,,4.3785,0.55877,3.7256,1.2396,3.0949,0.324,4.3785,0.558771,0.0138761,6.37761,0.0056
0.14998,104566.487,3.7275,1.2446,,,4.3971,0.55905,,,,,4.3971,0.559044,0.0134641,6.3454,0.0056
0.14998,104686.487,3.729,1.2496,,,4.4158,0.55928,,,,,4.4158,0.559266,0.0121768,6.3454,0.0056
0.14997,104806.487,3.7306,1.2546,,,4.4344,0.55948,,,,,4.4344,0.559507,0.013271,6.3454,0.0056
0.14998,104926.488,3.7325,1.2596,,,4.4531,0.5598,,,,,4.4531,0.559763,0.014147,6.3454,0.0056
0.14998,105046.487,3.7339,1.2646,,,4.4717,0.56001,3.7339,1.2646,2.97957,0.336,4.4717,0.560021,0.0126889,6.25119,0.0056
0.14997,105166.487,3.7358,1.2696,,,4.4904,0.56026,,,,,4.4904,0.560256,0.0136015,6.25119,0.0056
0.14997,105286.486,3.7374,1.2746,,,4.5091,0.5605,,,,,4.5091,0.560515,0.0138858,6.25119,0.0056
0.14998,105406.489,3.739,1.2796,,,4.5278,0.56078,,,,,4.5278,0.560793,0.014852,6.22698,0.0056
0.14998,105526.488,3.7409,1.2846,,,4.5464,0.56106,,,,,4.5464,0.561053,0.0130397,6.22698,0.0056
0.14997,105646.487,3.7424,1.2896,,,4.5652,0.56125,,,,,4.5652,0.561294,0.0133689,6.22698,0.0056
0.14997,105766.488,3.7443,1.2946,,,4.5839,0.56153,,,,,4.5839,0.561544,0.0136723,6.23694,0.0056
0.14998,105886.487,3.7459,1.2996,,,4.6026,0.56181,3.7459,1.2996,2.97957,0.336,4.6026,0.561818,0.0144799,6.23694,0.0056
0.14998,106006.488,3.7476,1.3046,,,4.6213,0.56207,,,,,4.6213,0.562077,0.0133762,6.23694,0.0056
0.14997,106126.488,3.7495,1.3096,,,4.6401,0.56231,,,,,4.6401,0.562314,0.0128789,6.23694,0.0056
0.14997,106246.488,3.751,1.3146,,,4.6588,0.56254,,,,,4.6588,0.562564,0.0137999,6.21088,0.0056
0.14998,106366.487,3.7529,1.3196,,,4.6776,0.56286,,,,,4.6776,0.562838,0.0143078,6.21088,0.0056
0.14998,106486.487,3.7545,1.3246,,,4.6963,0.5631,,,,,4.6963,0.563104,0.0142189,6.21088,0.0056
0.14997,106606.487,3.7562,1.3296,0.34557,,4.7151,0.56332,,,,,4.7151,0.56335,0.0131574,6.1607,0.0056
0.14997,106726.487,3.7581,1.3346,0.0,,4.7339,0.5636,3.7581,1.3346,2.8795,0.347333,4.7339,0.56361,0.0139749,6.1607,0.0056
0.14998,106846.488,3.7597,1.3396,0.0,,4.7527,0.56388,,,,,4.7527,0.563888,0.0150387,6.1607,0.0056
0.14998,106966.487,3.7616,1.3446,0.0,2.8874,4.7715,0.56416,3.7616,1.3446,2.8795,0.347333,4.7715,0.564159,0.0137584,6.1526,0.0056
0.14998,107086.488,3.7631,1.3496,0.0,0.0,4.7903,0.56439,,,,,4.7903,0.564407,0.0134314,6.1526,0.0056
0.14998,107206.487,3.7649,1.3546,0.0,0.0,4.8091,0.56466,,,,,4.8091,0.564664,0.0133831,6.1526,0.0056
0.14998,107326.488,3.7668,1.3596,0.34614,2.8747,4.8279,0.56494,,,,,4.8279,0.564915,0.0138413,6.14459,0.0056
0.14997,107446.487,3.7683,1.3645,0.0,0.0,4.8467,0.56513,,,,,4.8467,0.565167,0.0130803,6.14459,0.0056
0.14998,107566.488,3.7703,1.3695,0.0,0.0,4.8656,0.56547,3.7703,1.3695,2.99581,0.335553,4.8656,0.565424,0.0136571,6.14459,0.0056
0.14998,107686.488,3.7718,1.3745,0.0,2.891,4.8844,0.56569,,,,,4.8844,0.565682,0.0136209,6.14459,0.0056
0.14997,107806.487,3.7735,1.3795,0.0,0.0,4.9033,0.56591,3.7735,1.3795,3.03198,0.330667,4.9033,0.565927,0.0137492,6.1687,0.0056
0.14997,107926.486,3.7755,1.3845,0.0,0.0,4.9221,0.56621,,,,,4.9221,0.566192,0.0140304,6.1687,0.0056
0.14998,108046.487,3.777,1.3895,,2.901,4.941,0.56647,,,,,4.941,0.566466,0.0135603,6.1687,0.0056
0.14998,108166.486,3.7789,1.3945,,0.0,4.9599,0.56676,,,,,4.9599,0.566722,0.0137411,6.21898,0.0056
0.14997,108286.488,3.7805,1.3995,,0.0,4.9788,0.56696,,,,,4.9788,0.566973,0.0134144,6.21898,0.0056
0.14997,108406.489,3.7821,1.4045,,2.9057,4.9977,0.5672,3.7821,1.4045,2.90698,0.344,4.9977,0.567224,0.0138191,6.21898,0.0056
0.14997,108526.488,3.784,1.4095,,0.0,5.0166,0.56749,,,,,5.0166,0.567489,0.0134563,6.28712,0.0056
0.14998,108646.487,3.7855,1.4145,,0.0,5.0355,0.56775,,,,,5.0355,0.567748,0.0138399,6.28712,0.0056
0.14998,108766.487,3.7873,1.4195,,2.935,5.0545,0.56802,,,,,5.0545,0.568003,0.0134605,6.28712,0.0056
0.14998,108886.488,3.7891,1.4245,,0.0,5.0734,0.56829,,,,,5.0734,0.568262,0.0146389,6.26916,0.0056
0.14999,109006.486,3.7906,1.4295,,0.0,5.0923,0.56855,,,,,5.0923,0.568534,0.0131715,6.26916,0.0056
0.14999,109126.488,3.7925,1.4345,,,5.1113,0.56884,,,,,5.1113,0.568778,0.0127364,6.26916,0.0056
0.14998,109246.489,3.794,1.4395,,,5.1303,0.56902,3.794,1.4395,2.97619,0.336,5.1303,0.569019,0.0132352,6.26916,0.0056
0.14998,109366.487,3.7958,1.4445,,,5.1492,0.56929,,,,,5.1492,0.569272,0.013928,6.25119,0.0056
0.14998,109486.488,3.7975,1.4495,,,5.1682,0.56955,,,,,5.1682,0.569539,0.0132126,6.25119,0.0056
0.14999,109606.487,3.799,1.4545,,,5.1872,0.56981,,,,,5.1872,0.569786,0.0128845,6.25119,0.0056
0.14998,109726.488,3.8008,1.4595,,,5.2062,0.57004,,,,,5.2062,0.57002,0.0118843,6.30323,0.0056
0.14998,109846.488,3.8023,1.4645,,,5.2252,0.57027,3.8023,1.4645,2.98996,0.334667,5.2252,0.570257,0.0128913,6.30323,0.0056
0.14998,109966.488,3.8042,1.4695,,,5.2442,0.57055,,,,,5.2442,0.570504,0.0131921,6.30323,0.0056
0.14997,110086.489,3.8057,1.4745,,,5.2632,0.57074,3.8057,1.4745,2.95684,0.338222,5.2632,0.570757,0.0134883,6.32743,0.0056
0.14998,110206.488,3.8073,1.4795,,,5.2822,0.57102,,,,,5.2822,0.57101,0.0131533,6.32743,0.0056
0.14998,110326.487,3.8091,1.4845,,,5.3013,0.57129,,,,,5.3013,0.571262,0.013224,6.32743,0.0056
0.14997,110446.488,3.8106,1.4895,,,5.3203,0.57148,,,,,5.3203,0.571515,0.0129255,6.32743,0.0056
0.14999,110566.488,3.8124,1.4945,,3.0395,5.3394,0.57182,,,,,5.3394,0.571757,0.0122398,6.35965,0.0056
0.14998,110686.488,3.8138,1.4995,,0.0,5.3584,0.57199,3.8138,1.4995,3.0949,0.324,5.3584,0.572,0.0129851,6.35965,0.0056
0.14997,110806.488,3.8155,1.5045,,0.0,5.3775,0.57221,,,,,5.3775,0.572232,0.0132718,6.35965,0.0056
0.14998,110926.488,3.8172,1.5095,,3.0621,5.3966,0.5725,,,,,5.3966,0.5725,0.0133936,6.41978,0.0056
0.14999,111046.487,3.8187,1.5145,,0.0,5.4157,0.57277,,,,,5.4157,0.572757,0.0127891,6.41978,0.0056
0.14998,111166.488,3.8205,1.5195,,0.0,5.4347,0.573,,,,,5.4347,0.572988,0.0119068,6.41978,0.0056
0.14997,111286.487,3.8221,1.5245,,3.0908,5.4538,0.5732,3.8221,1.5245,3.08736,0.324,5.4538,0.573209,0.0120702,6.41978,0.0056
0.14998,111406.488,3.8235,1.5295,,0.0,5.473,0.57345,,,,,5.473,0.573451,0.013005,6.43589,0.0056
0.14998,111526.489,3.8253,1.5345,,0.0,5.4921,0.57372,,,,,5.4921,0.573707,0.0130785,6.43589,0.0056
0.14998,111646.487,3.8268,1.5395,0.32125,3.1247,5.5112,0.57394,,,,,5.5112,0.57395,0.0122813,6.43589,0.0056
0.14998,111766.487,3.8284,1.5445,0.0,0.0,5.5303,0.57418,,,,,5.5303,0.574183,0.0120309,6.41793,0.0056
0.14997,111886.487,3.8301,1.5495,0.0,0.0,5.5495,0.5744,3.8301,1.5495,3.125,0.32,5.5495,0.574413,0.0120584,6.41793,0.0056
0.14997,112006.489,3.8315,1.5545,0.0,3.1211,5.5686,0.57461,,,,,5.5686,0.574643,0.0125361,6.41793,0.0056
0.14997,112126.488,3.8332,1.5595,0.0,0.0,5.5878,0.57487,,,,,5.5878,0.574885,0.0125,6.41793,0.0056
0.14997,112246.486,3.8349,1.5645,0.0,0.0,5.6069,0.57512,,,,,5.6069,0.575121,0.0122034,6.43589,0.0056
0.14998,112366.487,3.8363,1.5695,0.32069,0.0,5.6261,0.57537,,,,,5.6261,0.57536,0.0124752,6.43589,0.0056
0.14998,112486.487,3.8381,1.5745,0.0,,5.6453,0.57564,3.8381,1.5745,3.125,0.32,5.6453,0.57561,0.0132576,6.43589,0.0056
0.14998,112606.487,3.8395,1.5795,0.0,,5.6645,0.57585,,,,,5.6645,0.575843,0.0123692,6.43589,0.0056
0.14997,112726.488,3.8412,1.5845,0.0,,5.6837,0.57606,,,,,5.6837,0.576079,0.0120355,6.43589,0.0056
0.14998,112846.488,3.8429,1.5895,0.0,,5.7029,0.57636,,,,,5.7029,0.576319,0.0126759,6.43589,0.0056
0.14998,112966.488,3.8443,1.5945,0.0,,5.7221,0.57657,,,,,5.7221,0.57658,0.0132666,6.43589,0.0056
0.14998,113086.487,3.8461,1.5995,0.0,,5.7413,0.57684,3.8461,1.5995,3.125,0.32,5.7413,0.576816,0.0127976,6.41793,0.0056
0.14997,113206.487,3.8476,1.6045,,,5.7605,0.57702,,,,,5.7605,0.577057,0.011773,6.41793,0.0056
0.14998,113326.486,3.8492,1.6095,,,5.7798,0.5773,,,,,5.7798,0.577281,0.0119656,6.41793,0.0056
0.14997,113446.487,3.8509,1.6145,,,5.799,0.57752,,,,,5.799,0.577521,0.0118416,6.43589,0.0056
0.14998,113566.487,3.8523,1.6195,,,5.8183,0.57777,,,,,5.8183,0.577751,0.0129009,6.43589,0.0056
0.14997,113686.489,3.8541,1.6245,,,5.8375,0.578,3.8541,1.6245,3.16557,0.316,5.8375,0.578004,0.013091,6.43589,0.0056
0.14998,113806.487,3.8555,1.6295,,,5.8568,0.57825,,,,,5.8568,0.578258,0.0127841,6.43589,0.0056
0.14998,113926.488,3.8571,1.6345,,3.1289,5.8761,0.57849,,,,,5.8761,0.57849,0.0116989,6.43589,0.0056
0.14996,114046.487,3.8589,1.6395,,0.0,5.8954,0.57868,,,,,5.8954,0.578717,0.01172,6.43589,0.0056
0.14997,114166.487,3.8604,1.6445,,0.0,5.9147,0.57894,,,,,5.9147,0.578943,0.0120924,6.43589,0.0056
0.14997,114286.488,3.862,1.6495,,3.1206,5.934,0.57918,3.862,1.6495,3.08736,0.324,5.934,0.579189,0.0126723,6.38571,0.0056
0.14997,114406.487,3.8637,1.6545,,0.0,5.9533,0.57944,,,,,5.9533,0.579439,0.0138809,6.38571,0.0056
0.14998,114526.486,3.8651,1.6595,,0.0,5.9726,0.57969,,,,,5.9726,0.579703,0.0131012,6.38571,0.0056
0.14998,114646.487,3.8669,1.6645,0.32019,3.1336,5.9919,0.57996,,,,,5.9919,0.579938,0.0120476,6.38571,0.0056
0.14998,114766.487,3.8683,1.6695,0.0,0.0,6.0112,0.58017,,,,,6.0112,0.580202,0.0144174,6.33544,0.0056
0.15,114886.488,3.8701,1.6745,0.0,0.0,6.0306,0.58052,3.8701,1.6745,3.125,0.32,6.0306,0.580472,0.0130406,6.33544,0.0056
0.14998,115006.487,3.8717,1.6795,0.0,3.0765,6.0499,0.58068,,,,,6.0499,0.580695,0.0106799,6.33544,0.0056
0.14997,115126.488,3.8732,1.6845,0.0,0.0,6.0693,0.58086,,,,,6.0693,0.580892,0.0103249,6.29336,0.0056
0.14998,115246.487,3.875,1.6895,0.0,0.0,6.0887,0.58117,,,,,6.0887,0.581127,0.0130522,6.29336,0.0056
0.14997,115366.488,3.8764,1.6945,0.32381,0.0,6.108,0.58134,,,,,6.108,0.581366,0.0121034,6.29336,0.0056
0.14997,115486.487,3.8781,1.6995,0.0,,6.1274,0.5816,3.8781,1.6995,3.07532,0.325344,6.1274,0.581611,0.0138863,6.29336,0.0056
0.14998,115606.487,3.8799,1.7045,0.0,,6.1468,0.58191,,,,,6.1468,0.581885,0.0128107,6.31933,0.0056
0.14998,115726.487,3.8814,1.7095,0.0,,6.1662,0.58213,,,,,6.1662,0.582132,0.0127572,6.31933,0.0056
0.14997,115846.487,3.8832,1.7144,0.0,,6.1856,0.58236,,,,,6.1856,0.582361,0.0119985,6.31933,0.0056
0.14997,115966.486,3.8848,1.7194,0.0,,6.205,0.5826,,,,,6.205,0.582607,0.0135828,6.31133,0.0056
0.14998,116086.488,3.8863,1.7244,0.32739,,6.2244,0.58287,3.8863,1.7244,3.03854,0.329111,6.2244,0.582879,0.0133034,6.31133,0.0056
0.14999,116206.487,3.8881,1.7294,0.0,,6.2439,0.58318,,,,,6.2439,0.583142,0.0132659,6.31133,0.0056
0.14998,116326.487,3.8896,1.7344,0.0,,6.2633,0.58336,3.8896,1.7344,3.00649,0.332667,6.2633,0.583371,0.0119115,6.30137,0.0056
0.14997,116446.488,3.8914,1.7394,0.0,,6.2828,0.58359,,,,,6.2828,0.583618,0.0128873,6.30137,0.0056
0.14999,116566.487,3.8931,1.7444,0.0,,6.3022,0.58393,,,,,6.3022,0.583864,0.0125229,6.30137,0.0056
0.14997,116686.486,3.8946,1.7494,0.0,,6.3217,0.58407,,,,,6.3217,0.584118,0.0130568,6.30137,0.0056
0.14998,116806.488,3.8965,1.7544,0.33439,,6.3411,0.5844,,,,,6.3411,0.584355,0.012467,6.32743,0.0056
0.14998,116926.487,3.898,1.7594,0.0,,6.3606,0.58462,3.898,1.7594,3.01292,0.332,6.3606,0.584616,0.013591,6.32743,0.0056
0.14998,117046.486,3.8997,1.7644,0.0,,6.3801,0.58488,,,,,6.3801,0.584879,0.0134747,6.32743,0.0056
0.14999,117166.488,3.9015,1.7694,0.0,,6.3996,0.58519,,,,,6.3996,0.585145,0.0129837,6.40983,0.0056
0.14998,117286.488,3.903,1.7744,0.0,,6.4191,0.58537,,,,,6.4191,0.585382,0.011694,6.40983,0.0056
0.14997,117406.488,3.9048,1.7794,0.0,,6.4386,0.5856,,,,,6.4386,0.585603,0.0116248,6.40983,0.0056
0.14997,117526.489,3.9063,1.7844,0.3311,,6.4582,0.58583,3.9063,1.7844,3.0949,0.324,6.4582,0.585844,0.0125961,6.40983,0.0056
0.14998,117646.489,3.9078,1.7894,0.0,,6.4777,0.58609,,,,,6.4777,0.586083,0.0117921,6.53449,0.0056
0.14997,117766.486,3.9096,1.7944,0.0,,6.4972,0.58632,,,,,6.4972,0.586326,0.0127265,6.53449,0.0056
0.14998,117886.488,3.911,1.7994,0.0,,6.5168,0.58657,,,,,6.5168,0.586555,0.0115175,6.53449,0.0056
0.14997,118006.487,3.9127,1.8044,0.0,,6.5363,0.58679,,,,,6.5363,0.586788,0.01141,6.7433,0.0056
0.14998,118126.487,3.914,1.8094,0.0,,6.5559,0.58702,3.914,1.8094,3.38278,0.296121,6.5559,0.587006,0.0111914,6.7433,0.0056
0.14997,118246.487,3.9156,1.8144,0.0,,6.5755,0.58722,,,,,6.5755,0.587229,0.0118209,6.7433,0.0056
0.14997,118366.487,3.917,1.8194,,3.3696,6.595,0.58743,,,,,6.595,0.587451,0.011156,6.7433,0.0056
0.14998,118486.487,3.9183,1.8244,,0.0,6.6146,0.58767,3.9183,1.8244,3.53416,0.28303,6.6146,0.587678,0.0115558,6.91013,0.0056
0.14998,118606.489,3.9199,1.8294,,0.0,6.6342,0.58791,,,,,6.6342,0.587897,0.0103984,6.91013,0.0056
0.14998,118726.488,3.9211,1.8344,,0.0,6.6538,0.58809,,,,,6.6538,0.588102,0.0106326,6.91013,0.0056
0.14998,118846.488,3.9226,1.8394,,,6.6734,0.58831,,,,,6.6734,0.588295,0.00930515,6.91013,0.0056
0.14997,118966.488,3.924,1.8444,,,6.693,0.58848,,,,,6.693,0.588486,0.0101202,7.02659,0.0056
0.14997,119086.488,3.9251,1.8494,,,6.7126,0.58865,,,,,6.7126,0.588678,0.0102902,7.02659,0.0056
0.14997,119206.487,3.9267,1.8544,0.27412,,6.7323,0.58889,,,,,6.7323,0.588886,0.0102359,7.02659,0.0056
0.14997,119326.486,3.928,1.8594,0.0,,6.7519,0.58908,,,,,6.7519,0.589085,0.00996554,7.02659,0.0056
0.14998,119446.487,3.9291,1.8644,0.0,,6.7715,0.58929,,,,,6.7715,0.589274,0.00987057,7.01858,0.0056
0.14998,119566.487,3.9305,1.8694,0.0,,6.7912,0.5895,,,,,6.7912,0.589489,0.0107908,7.01858,0.0056
0.14998,119686.488,3.9319,1.8744,0.0,3.8085,6.8108,0.58971,,,,,6.8108,0.589679,0.00948847,7.01858,0.0056
0.14997,119806.487,3.933,1.8794,0.0,0.0,6.8305,0.58983,,,,,6.8305,0.589865,0.00970266,7.01858,0.0056
0.14997,119926.487,3.9345,1.8844,0.0,0.0,6.8501,0.59006,,,,,6.8501,0.590061,0.00995546,6.93424,0.0056
0.14998,120046.488,3.9357,1.8894,0.0,0.0,6.8698,0.59028,,,,,6.8698,0.590272,0.0106348,6.93424,0.0056
0.14997,120166.488,3.9371,1.8944,,3.7659,6.8895,0.59045,,,,,6.8895,0.590476,0.0108212,6.93424,0.0056
0.14997,120286.487,3.9386,1.8994,,0.0,6.9092,0.59067,,,,,6.9092,0.590677,0.0101674,6.93424,0.0056
0.14998,120406.488,3.9398,1.9044,,0.0,6.9289,0.59089,,,,,6.9289,0.590889,0.0108807,6.93424,0.0056
0.14998,120526.488,3.9414,1.9094,,0.0,6.9486,0.59113,,,,,6.9486,0.591105,0.0105548,6.79357,0.0056
0.14998,120646.489,3.9427,1.9144,,,6.9683,0.59133,,,,,6.9683,0.591315,0.010991,6.79357,0.0056
0.14998,120766.489,3.944,1.9194,,,6.988,0.59152,,,,,6.988,0.591524,0.0110743,6.79357,0.0056
0.14997,120886.488,3.9457,1.9244,,,7.0077,0.59174,,,,,7.0077,0.591742,0.0106473,6.61873,0.0056
0.14998,121006.488,3.9469,1.9294,,3.4983,7.0274,0.59196,,,,,7.0274,0.591964,0.0112139,6.61873,0.0056
0.14998,121126.488,3.9485,1.9344,,0.0,7.0471,0.5922,,,,,7.0471,0.592192,0.0116637,6.61873,0.0056
0.14997,121246.487,3.95,1.9394,,0.0,7.0669,0.59238,3.95,1.9394,3.29403,0.304,7.0669,0.592408,0.01091,6.61873,0.0056
0.14997,121366.486,3.9514,1.9444,,0.0,7.0866,0.59259,,,,,7.0866,0.592611,0.010308,6.41793,0.0056
0.14997,121486.488,3.9532,1.9494,,,7.1064,0.59286,,,,,7.1064,0.592853,0.0125476,6.41793,0.0056
0.14998,121606.487,3.9546,1.9544,,,7.1262,0.59311,,,,,7.1262,0.593095,0.0122882,6.41793,0.0056
0.14997,121726.487,3.9561,1.9594,0.30521,,7.1459,0.5933,,,,,7.1459,0.59333,0.0117976,6.41793,0.0056
0.14997,121846.488,3.9579,1.9644,0.0,,7.1657,0.59357,3.9579,1.9644,3.08736,0.324,7.1657,0.593563,0.0125519,6.26916,0.0056
0.14997,121966.489,3.9594,1.9694,0.0,,7.1855,0.59379,,,,,7.1855,0.593833,0.0132559,6.26916,0.0056
0.14998,122086.489,3.9612,1.9744,0.0,,7.2053,0.5941,,,,,7.2053,0.594077,0.0123879,6.26916,0.0056
0.14997,122206.488,3.9627,1.9794,0.0,,7.2251,0.59429,,,,,7.2251,0.594336,0.0131575,6.13649,0.0056
0.14998,122326.487,3.9646,1.9844,0.0,,7.2449,0.59461,,,,,7.2449,0.594595,0.0130482,6.13649,0.0056
0.14998,122446.487,3.9662,1.9894,0.33417,,7.2647,0.59485,3.9662,1.9894,2.83079,0.354889,7.2647,0.594856,0.0132166,6.13649,0.0056
0.14997,122566.488,3.9679,1.9944,0.0,,7.2846,0.59507,,,,,7.2846,0.595102,0.0125853,6.13649,0.0056
0.14997,122686.487,3.9699,1.9994,0.0,,7.3044,0.59537,3.9699,1.9994,2.73658,0.365556,7.3044,0.59537,0.0137982,6.01007,0.0056
0.14998,122806.488,3.9715,2.0044,0.0,,7.3242,0.59565,,,,,7.3242,0.595644,0.0137791,6.01007,0.0056
0.14997,122926.487,3.9735,2.0094,0.0,,7.3441,0.59591,,,,,7.3441,0.595927,0.0146618,6.01007,0.0056
0.14998,123046.487,3.9753,2.0144,0.0,,7.364,0.59622,,,,,7.364,0.596202,0.0137816,5.95365,0.0056
0.14998,123166.488,3.977,2.0194,,2.7037,7.3838,0.59647,,,,,7.3838,0.596491,0.0138952,5.95365,0.0056
0.14998,123286.488,3.9791,2.0244,,0.0,7.4037,0.59679,,,,,7.4037,0.596761,0.0141194,5.95365,0.0056
0.14997,123406.489,3.9808,2.0294,,0.0,7.4236,0.597,,,,,7.4236,0.597052,0.0148429,5.87926,0.0056
0.14997,123526.487,3.983,2.0344,,,7.4435,0.59733,,,,,7.4435,0.597332,0.0141255,5.87926,0.0056
0.14997,123646.488,3.9848,2.0394,,,7.4634,0.5976,,,,,7.4634,0.597624,0.0146443,5.76895,0.0056
0.14997,123766.488,3.9869,2.0444,0.38792,2.5208,7.4834,0.59792,,,,,7.4834,0.597922,0.0153776,5.76895,0.0056
0.14998,123886.487,3.989,2.0494,0.0,0.0,7.5033,0.59827,,,,,7.5033,0.598245,0.0169221,5.76895,0.0056
0.14998,124006.489,3.9909,2.0544,0.0,0.0,7.5232,0.59856,,,,,7.5232,0.598569,0.0156533,5.72863,0.0056
0.14998,124126.488,3.9931,2.0594,0.0,,7.5432,0.59889,,,,,7.5432,0.598869,0.0144372,5.72863,0.0056
0.14998,124246.487,3.995,2.0643,0.0,,7.5632,0.59917,,,,,7.5632,0.599172,0.0158956,5.72863,0.0056
0.14997,124366.486,3.9973,2.0693,,2.4085,7.5831,0.59948,,,,,7.5831,0.599487,0.0160152,5.69642,0.0056
0.14997,124486.487,3.9994,2.0743,,0.0,7.6031,0.59979,,,,,7.6031,0.599808,0.0164242,5.69642,0.0056
0.14998,124606.488,4.0014,2.0793,,0.0,7.6231,0.60013,,,,,7.6231,0.600132,0.0159394,5.69642,0.0056
0.14998,124726.487,4.0038,2.0843,,,7.6431,0.60049,,,,,7.6431,0.600466,0.0161991,5.63628,0.0056
0.14999,124846.488,4.0057,2.0893,,,7.6631,0.60081,4.0057,2.0893,2.33895,0.429048,7.6631,0.600772,0.0155498,5.63628,0.0056
0.14998,124966.488,4.0078,2.0943,,,7.6832,0.60109,,,,,7.6832,0.601093,0.0165594,5.60407,0.0056
0.14998,125086.487,4.0102,2.0993,,,7.7032,0.60145,4.0102,2.0993,2.24776,0.445,7.7032,0.601421,0.0167056,5.60407,0.0056
0.14998,125206.488,4.0122,2.1043,,2.2969,7.7233,0.60175,,,,,7.7233,0.601759,0.0153647,5.60407,0.0056
0.14998,125326.487,4.0146,2.1093,,0.0,7.7433,0.60211,4.0146,2.1093,2.40786,0.417143,7.7433,0.602069,0.0158355,5.59597,0.0056
0.14997,125446.486,4.0165,2.1143,0.43547,0.0,7.7634,0.60235,,,,,7.7634,0.602375,0.0152581,5.59597,0.0056
0.14996,125566.487,4.0188,2.1193,0.0,,7.7835,0.60266,,,,,7.7835,0.602686,0.0163153,5.57,0.0056
0.14997,125686.488,4.0211,2.1243,0.0,,7.8036,0.60304,,,,,7.8036,0.603035,0.0171776,5.57,0.0056
0.14998,125806.486,4.0231,2.1293,0.0,,7.8237,0.60338,,,,,7.8237,0.603387,0.0172187,5.57,0.0056
0.14998,125926.489,4.0253,2.1343,0.0,,7.8438,0.60371,,,,,7.8438,0.603719,0.0163869,5.59597,0.0056
0.14997,126046.488,4.0276,2.1393,,2.3018,7.8639,0.60402,,,,,7.8639,0.604033,0.0149501,5.59597,0.0056
0.14997,126166.487,4.0296,2.1443,,0.0,7.884,0.60432,4.0296,2.1443,2.33895,0.429048,7.884,0.604333,0.0156112,5.60407,0.0056
0.14997,126286.487,4.0318,2.1493,,2.3154,7.9042,0.60465,,,,,7.9042,0.604659,0.0162809,5.60407,0.0056
0.14998,126406.489,4.0341,2.1543,,0.0,7.9244,0.60503,4.0341,2.1543,2.30432,0.435,7.9244,0.604993,0.0166177,5.60407,0.0056
0.14998,126526.489,4.0361,2.1593,0.42892,0.0,7.9445,0.60533,,,,,7.9445,0.605323,0.0160259,5.65239,0.0056
0.14998,126646.487,4.0383,2.1643,0.0,,7.9647,0.60566,4.0383,2.1643,2.44193,0.41,7.9647,0.605635,0.0158523,5.65239,0.0056
0.14998,126766.487,4.0402,2.1693,,,7.9849,0.60595,,,,,7.9849,0.605961,0.0160002,5.65239,0.0056
0.14999,126886.487,4.0423,2.1743,,2.402,8.0051,0.6063,4.0423,2.1743,2.46989,0.405,8.0051,0.606276,0.0149758,5.77081,0.0056
0.14998,127006.487,4.0445,2.1793,,0.0,8.0253,0.60659,,,,,8.0253,0.606585,0.015533,5.77081,0.0056
0.14998,127126.488,4.0464,2.1843,0.4143,0.0,8.0455,0.60688,4.0464,2.1843,2.50313,0.4,8.0455,0.606884,0.0141678,5.87926,0.0056
0.14998,127246.488,4.0485,2.1893,0.0,,8.0658,0.60719,,,,,8.0658,0.607174,0.0145681,5.87926,0.0056
0.14998,127366.488,4.0503,2.1943,0.0,,8.086,0.60746,4.0503,2.1943,2.53246,0.395,8.086,0.607473,0.0147508,5.87926,0.0056
0.14998,127486.487,4.0525,2.1993,0.0,2.5234,8.1063,0.60779,,,,,8.1063,0.607776,0.0148723,5.91958,0.0056
0.14998,127606.487,4.0543,2.2043,0.0,0.0,8.1265,0.60806,4.0543,2.2043,2.53246,0.395,8.1265,0.608069,0.0147743,5.91958,0.0056
0.14998,127726.488,4.0562,2.2093,0.3933,0.0,8.1468,0.60835,,,,,8.1468,0.608366,0.0147161,5.91958,0.0056
0.14999,127846.489,4.0582,2.2143,0.0,,8.1671,0.60869,4.0582,2.2143,2.63523,0.38,8.1671,0.608662,0.0141069,6.00197,0.0056
0.14999,127966.487,4.06,2.2193,0.0,,8.1874,0.60896,,,,,8.1874,0.608941,0.0127385,6.00197,0.0056
0.14999,128086.489,4.0619,2.2243,0.0,2.6789,8.2077,0.60924,4.0619,2.2243,2.73658,0.365556,8.2077,0.609195,0.0132381,6.00197,0.0056
0.14998,128206.487,4.0636,2.2293,0.0,0.0,8.228,0.60946,,,,,8.228,0.609469,0.0134656,6.24123,0.0056
0.14998,128326.487,4.0656,2.2343,0.0,0.0,8.2483,0.60976,,,,,8.2483,0.609737,0.0128651,6.24123,0.0056
0.14998,128446.489,4.0671,2.2393,,2.7959,8.2686,0.60998,,,,,8.2686,0.609991,0.0117265,6.24123,0.0056
0.14997,128566.489,4.0688,2.2443,,0.0,8.2889,0.6102,,,,,8.2889,0.610222,0.0116381,6.91061,0.0056
0.14997,128686.488,4.0706,2.2493,,0.0,8.3093,0.61047,,,,,8.3093,0.610469,0.0122358,6.91061,0.0056
0.14998,128806.489,4.072,2.2543,,3.0388,8.3296,0.61072,,,,,8.3296,0.610727,0.0123527,6.91061,0.0056
0.14998,128926.487,4.0737,2.2593,,0.0,8.35,0.61097,4.0737,2.2593,3.42616,0.294424,8.35,0.610961,0.0110708,6.91061,0.0056
0.14997,129046.489,4.0752,2.2643,,0.0,8.3704,0.61116,,,,,8.3704,0.611167,0.00957604,7.85617,0.0056
0.14998,129166.488,4.0763,2.2693,0.31276,0.0,8.3907,0.61136,,,,,8.3907,0.611365,0.0100055,7.85617,0.0056
0.14998,129286.487,4.0778,2.2743,0.0,,8.4111,0.61159,4.0778,2.2743,4.36041,0.242222,8.4111,0.611571,0.00937739,7.85617,0.0056
0.14998,129406.487,4.0789,2.2793,0.0,,8.4315,0.61175,,,,,8.4315,0.611747,0.00800866,7.85617,0.0056
0.14997,129526.488,4.08,2.2843,0.0,,8.4519,0.61188,,,,,8.4519,0.611886,0.00694126,8.01159,0.0056
0.14997,129646.486,4.081,2.2893,0.0,,8.4723,0.61203,,,,,8.4723,0.61204,0.00694338,8.01159,0.0056
0.14999,129766.488,4.0817,2.2943,0.0,4.6471,8.4927,0.61221,,,,,8.4927,0.612177,0.00637043,8.01159,0.0056
0.14997,129886.489,4.0827,2.2993,0.0,0.0,8.5131,0.61228,,,,,8.5131,0.612298,0.00561073,8.01159,0.0056
0.14998,130006.487,4.0832,2.3043,0.0,0.0,8.5335,0.6124,,,,,8.5335,0.612411,0.00618793,8.01159,0.0056
0.14998,130126.486,4.084,2.3093,0.0,0.0,8.5539,0.61252,,,,,8.5539,0.61252,0.00411043,8.01159,0.0056
0.14997,130246.487,4.0848,2.3143,0.0,0.0,8.5743,0.6126,,,,,8.5743,0.612603,0.00388974,8.01159,0.0056
0.14998,130366.487,4.0852,2.3193,0.0,0.0,8.5947,0.6127,,,,,8.5947,0.612689,0.00465045,8.01159,0.0056
0.14998,130486.489,4.0859,2.3243,0.0,0.0,8.6152,0.6128,4.0859,2.3243,8.47249,0.120335,8.6152,0.612783,0.00431839,6.4478,0.0056
0.14997,130606.489,4.0865,2.3293,0.17038,0.0,8.6356,0.61285,,,,,8.6356,0.612861,0.00364994,6.4478,0.0056
0.14998,130726.487,4.0868,2.3343,0.0,7.6583,8.656,0.61294,,,,,8.656,0.612939,0.00437463,6.4478,0.0056
0.14997,130846.487,4.0876,2.3393,0.0,0.0,8.6764,0.61302,,,,,8.6764,0.613034,0.00412784,6.4478,0.0056
0.14997,130966.487,4.0881,2.3443,0.0,0.0,8.6969,0.61309,4.0881,2.3443,9.09091,0.0996651,8.6969,0.613098,0.00246583,6.4478,0.0056