File: Data/processed_data/Cycle 72_discharge.csv
Current(A),Test_Time(s),Voltage(V),Discharge_Capacity(Ah),dV/dQ(V/Ah),dQ/dV(Ah/V),Discharge_Energy(Wh),Power(W),Downsampled Voltage (V),Downsampled Capacity (Ah),dQ/dV from downsampled Voltage (Ah/V),dV/dQ from downsampled Cpacity (V/Ah),Downsampled Energy (Wh),Downsampled Power (W),dP/dE from downsampled Energy (W/Wh),dQ/dV from LEAN (Ah/V),Delta_V (V) in LEAN
-0.15002,14544,4.0704,0.41255,,,1.692,-0.61064,,,,,1.692,-0.610633,0.00352393,5.25434,0.0056
-0.15003,14724,4.0696,0.42005,0.0,0.0,1.7225,-0.61056,,,,,1.7225,-0.610526,0.00349439,5.25434,0.0056
-0.15001,14904,4.0691,0.42755,,,1.7531,-0.61041,,,,,1.7531,-0.610422,0.00393902,5.25434,0.0056
-0.15001,15084,4.0682,0.43505,,0.0,1.7836,-0.61027,,,,,1.7836,-0.610314,0.00281091,5.25434,0.0056
-0.15002,15264,4.0677,0.44255,0.0,,1.8141,-0.61024,,,,,1.8141,-0.610201,0.00411468,5.66668,0.0056
-0.15001,15444,4.0666,0.45005,,0.0,1.8446,-0.61003,,,,,1.8446,-0.610079,0.00450089,5.66668,0.0056
-0.15001,15624,4.066,0.45755,0.0,,1.8751,-0.60994,4.066,0.45755,-6.25,-0.109674,1.8751,-0.609937,0.00391357,5.66668,0.0056
-0.15002,15804,4.0647,0.46505,,0.0,1.9056,-0.60979,,,,,1.9056,-0.609799,0.00591663,5.66668,0.0056
-0.15001,15984,4.0636,0.47255,0.0,,1.9361,-0.60958,,,,,1.9361,-0.609609,0.00580538,5.66668,0.0056
-0.15002,16164,4.0624,0.48005,,0.0,1.9666,-0.60944,,,,,1.9666,-0.60942,0.00701902,5.66668,0.0056
-0.15001,16344,4.0607,0.48756,,,1.997,-0.60915,,,,,1.997,-0.609205,0.00797337,4.99235,0.0056
-0.15001,16524,4.0594,0.49506,0.0,0.0,2.0275,-0.60895,,,,,2.0275,-0.608924,0.00837627,4.99235,0.0056
-0.15001,16704,4.0575,0.50256,,,2.0579,-0.60867,,,,,2.0579,-0.608682,0.00861263,4.99235,0.0056
-0.15001,16884,4.0556,0.51006,0.0,4.5859,2.0883,-0.60838,,,,,2.0883,-0.60841,0.00907544,3.98511,0.0056
-0.15001,17063.974,4.0536,0.51756,,,2.1188,-0.60808,,,,,2.1188,-0.608092,0.0105975,3.98511,0.0056
-0.15001,17244,4.0514,0.52506,0.24736,0.0,2.1492,-0.60775,,,,,2.1492,-0.607775,0.0112219,3.98511,0.0056
-0.15001,17424,4.0494,0.53256,,0.0,2.1795,-0.60745,,,,,2.1795,-0.60744,0.0109951,3.35038,0.0056
-0.15002,17604,4.0469,0.54006,0.0,,2.2099,-0.60712,,,,,2.2099,-0.607107,0.0109996,3.35038,0.0056
-0.15002,17784,4.0446,0.54756,,0.0,2.2402,-0.60677,,,,,2.2402,-0.606764,0.01185,3.06662,0.0056
-0.15001,17964,4.0422,0.55506,0.0,,2.2706,-0.60637,4.0422,0.55506,-3.05241,-0.328,2.2706,-0.606393,0.0125909,3.06662,0.0056
-0.15002,18144,4.0396,0.56256,0.0,,2.3009,-0.60602,,,,,2.3009,-0.60602,0.0126393,2.91662,0.0056
-0.15001,18324,4.0371,0.57006,,0.0,2.3312,-0.60561,,,,,2.3312,-0.605607,0.0135302,2.91662,0.0056
-0.15002,18503.974,4.0343,0.57756,0.0,0.0,2.3614,-0.60523,4.0343,0.57756,-2.76687,-0.361879,2.3614,-0.605227,0.0133259,2.82291,0.0056
-0.15001,18684,4.0318,0.58507,,,2.3917,-0.60481,,,,,2.3917,-0.604825,0.0124651,2.82291,0.0056
-0.15002,18864,4.0291,0.59257,0.0,0.0,2.4219,-0.60445,,,,,2.4219,-0.604419,0.0138228,2.82291,0.0056
-0.15001,19044,4.0262,0.60007,,,2.4521,-0.60397,4.0262,0.60007,-2.7027,-0.37,2.4521,-0.604025,0.0136821,2.70828,0.0056
-0.15002,19224,4.0236,0.60757,0.0,0.0,2.4823,-0.60362,,,,,2.4823,-0.603599,0.0141068,2.70828,0.0056
-0.15002,19403.973,4.0206,0.61507,0.36383,2.7038,2.5125,-0.60317,,,,,2.5125,-0.603167,0.0150102,2.56505,0.0056
-0.15002,19584,4.0176,0.62257,,,2.5426,-0.60272,4.0176,0.62257,-2.59639,-0.385333,2.5426,-0.602735,0.0142239,2.56505,0.0056
-0.15002,19764,4.0148,0.63007,0.0,,2.5728,-0.6023,,,,,2.5728,-0.602285,0.014949,2.46573,0.0056
-0.15002,19944,4.0115,0.63757,,0.0,2.6029,-0.60181,,,,,2.6029,-0.60183,0.0155981,2.44275,0.0056
-0.15001,20124,4.0086,0.64507,0.0,0.0,2.6329,-0.60133,,,,,2.6329,-0.601341,0.015939,2.44275,0.0056
-0.15001,20304,4.0055,0.65257,,2.494,2.663,-0.60087,,,,,2.663,-0.600863,0.0158462,2.45129,0.0056
-0.15002,20484,4.0022,0.66007,0.0,,2.693,-0.60041,4.0022,0.66007,-2.41034,-0.415,2.693,-0.600414,0.0157786,2.45129,0.0056
-0.15001,20664,3.9993,0.66757,0.0,,2.723,-0.59993,,,,,2.723,-0.59993,0.0159371,2.42744,0.0056
-0.15002,20844,3.9961,0.67507,,0.0,2.753,-0.59949,,,,,2.753,-0.599451,0.0163986,2.42744,0.0056
-0.15001,21024,3.9927,0.68258,0.0,0.0,2.783,-0.59894,,,,,2.783,-0.598988,0.0150152,2.38734,0.0056
-0.15002,21204,3.9898,0.69008,,,2.8129,-0.59855,3.9898,0.69008,-2.32139,-0.431254,2.8129,-0.598518,0.0156789,2.38734,0.0056
-0.15002,21384,3.9865,0.69758,0.0,0.0,2.8428,-0.59805,3.9865,0.69758,-2.32035,-0.431429,2.8428,-0.598051,0.0159436,2.37114,0.0056
-0.15002,21563.973,3.9835,0.70508,,0.0,2.8727,-0.5976,,,,,2.8727,-0.597581,0.0144785,2.40739,0.0056
-0.15001,21744,3.9803,0.71258,,2.4048,2.9026,-0.59708,,,,,2.9026,-0.597117,0.0166026,2.40739,0.0056
-0.15001,21924,3.9771,0.72008,,,2.9324,-0.5966,,,,,2.9324,-0.596635,0.0153902,2.45895,0.0056
-0.15001,22103.975,3.9743,0.72758,0.0,,2.9623,-0.59618,3.9743,0.72758,-2.44193,-0.41,2.9623,-0.596163,0.0152721,2.45895,0.0056
-0.15002,22284,3.971,0.73508,0.40161,0.0,2.9921,-0.59573,,,,,2.9921,-0.595735,0.0151811,2.50583,0.0056
-0.15002,22464,3.9683,0.74258,,0.0,3.0218,-0.59532,,,,,3.0218,-0.595283,0.014408,2.50583,0.0056
-0.15002,22644,3.9651,0.75008,0.0,2.4932,3.0516,-0.59484,,,,,3.0516,-0.59485,0.0151503,2.5889,0.0056
-0.15001,22824,3.9623,0.75758,0.0,,3.0813,-0.59438,3.9623,0.75758,-2.6074,-0.383778,3.0813,-0.594419,0.0145723,2.5889,0.0056
-0.15001,23003.974,3.9596,0.76508,,,3.111,-0.59398,,,,,3.111,-0.593979,0.0144522,2.69974,0.0056
-0.15002,23184,3.9566,0.77258,0.0,0.0,3.1407,-0.59357,,,,,3.1407,-0.593564,0.0133856,2.69974,0.0056
-0.15001,23364,3.9541,0.78009,,0.0,3.1704,-0.59315,3.9541,0.78009,-2.85154,-0.350695,3.1704,-0.593173,0.0133774,2.83057,0.0056
-0.15002,23544,3.9512,0.78759,0.0,,3.2,-0.59276,,,,,3.2,-0.592769,0.0137697,2.83057,0.0056
-0.15001,23724,3.9488,0.79509,0.0,0.0,3.2297,-0.59236,,,,,3.2297,-0.592347,0.0133075,2.94521,0.0056
-0.15002,23904,3.946,0.80259,,,3.2593,-0.59198,3.946,0.80259,-2.86687,-0.351333,3.2593,-0.591982,0.0121857,2.94521,0.0056
-0.15002,24084,3.9435,0.81009,0.0,0.0,3.2889,-0.5916,,,,,3.2889,-0.591619,0.0122571,3.05131,0.0056
-0.15001,24264,3.9413,0.81759,,,3.3184,-0.59123,,,,,3.3184,-0.591239,0.012777,3.05131,0.0056
-0.15002,24444,3.9386,0.82509,0.0,0.0,3.348,-0.59087,,,,,3.348,-0.590864,0.0125799,3.19746,0.0056
-0.15001,24624,3.9364,0.83259,,,3.3775,-0.5905,,,,,3.3775,-0.5905,0.01167,3.19746,0.0056
-0.15001,24804,3.9341,0.84009,0.0,0.0,3.407,-0.59015,3.9341,0.84009,-3.33984,-0.300485,3.407,-0.590165,0.0110938,3.19746,0.0056
-0.15002,24984,3.9318,0.84759,,,3.4365,-0.58985,,,,,3.4365,-0.589849,0.0108773,3.40288,0.0056
-0.15001,25164,3.9298,0.85509,0.0,,3.466,-0.58951,3.9298,0.85509,-3.47958,-0.287394,3.466,-0.589508,0.0112174,3.40288,0.0056
-0.15002,25343.973,3.9273,0.86259,,0.0,3.4955,-0.58917,,,,,3.4955,-0.589198,0.0113541,3.65308,0.0056
-0.15001,25524,3.9254,0.87009,0.0,3.4725,3.5249,-0.58885,,,,,3.5249,-0.58886,0.0111086,3.65308,0.0056
-0.15001,25704,3.9234,0.8776,,,3.5544,-0.58855,,,,,3.5544,-0.58854,0.0108189,3.65308,0.0056
-0.15001,25884,3.9212,0.8851,0.0,0.0,3.5838,-0.58822,,,,,3.5838,-0.588251,0.00968912,3.87851,0.0056
-0.15002,26064,3.9194,0.8926,0.0,0.0,3.6132,-0.58799,,,,,3.6132,-0.587971,0.00981518,3.87851,0.0056
-0.15002,26244,3.9173,0.9001,,,3.6426,-0.58767,,,,,3.6426,-0.587675,0.010304,3.87851,0.0056
-0.15001,26424,3.9155,0.9076,0.0,4.0339,3.672,-0.58736,,,,,3.672,-0.587378,0.00970458,4.05153,0.0056
-0.15001,26604,3.9138,0.9151,,,3.7013,-0.58711,,,,,3.7013,-0.5871,0.00951786,4.05153,0.0056
-0.15002,26783.973,3.9118,0.9226,0.0,0.0,3.7307,-0.58685,,,,,3.7307,-0.586838,0.00915751,4.05153,0.0056
-0.15002,26964,3.9102,0.9301,,,3.76,-0.58661,3.9102,0.9301,-4.27337,-0.234286,3.76,-0.586562,0.00874007,4.23008,0.0056
-0.15002,27144,3.9083,0.9376,0.0,0.0,3.7893,-0.58632,,,,,3.7893,-0.586307,0.00908854,4.23008,0.0056
-0.15001,27323.975,3.9067,0.9451,,,3.8186,-0.58604,,,,,3.8186,-0.586047,0.00843218,4.23008,0.0056
-0.15001,27504,3.905,0.9526,0.0,,3.8479,-0.58579,,,,,3.8479,-0.585768,0.00926739,4.3533,0.0056
-0.15001,27684,3.9031,0.9601,,0.0,3.8772,-0.5855,,,,,3.8772,-0.585514,0.00834427,4.3533,0.0056
-0.15001,27864,3.9016,0.9676,0.0,,3.9065,-0.58528,,,,,3.9065,-0.585268,0.00828236,4.3533,0.0056
-0.15001,28044,3.8997,0.9751,0.0,,3.9358,-0.58499,,,,,3.9358,-0.585026,0.00872367,4.39247,0.0056
-0.15002,28224,3.8982,0.9826,,0.0,3.965,-0.58481,3.8982,0.9826,-4.32231,-0.231429,3.965,-0.584778,0.00786961,4.39247,0.0056
-0.15001,28404,3.8965,0.9901,0.0,,3.9942,-0.58451,,,,,3.9942,-0.584522,0.009265,4.39247,0.0056
-0.15,28584,3.8947,0.99761,,0.0,4.0234,-0.58421,,,,,4.0234,-0.584272,0.00810262,4.39247,0.0056
-0.15001,28763.974,3.8932,1.0051,0.0,,4.0527,-0.58402,,,,,4.0527,-0.584019,0.00839819,4.33325,0.0056
-0.15001,28944,3.8913,1.0126,,0.0,4.0818,-0.58373,,,,,4.0818,-0.583758,0.00996002,4.33325,0.0056
-0.15001,29124,3.8895,1.0201,0.0,,4.111,-0.58346,,,,,4.111,-0.583489,0.00835302,4.33325,0.0056
-0.15002,29303.974,3.888,1.0276,,0.0,4.1402,-0.58328,,,,,4.1402,-0.58324,0.0093913,4.19856,0.0056
-0.15001,29484,3.8861,1.0351,0.0,,4.1694,-0.58295,3.8861,1.0351,-4.21809,-0.237143,4.1694,-0.582958,0.00983503,4.19856,0.0056
-0.15001,29664,3.8845,1.0426,,,4.1985,-0.58271,,,,,4.1985,-0.582681,0.00821738,4.19856,0.0056
-0.15001,29843.973,3.8826,1.0501,0.0,0.0,4.2276,-0.58243,,,,,4.2276,-0.582425,0.00972292,3.997,0.0056
-0.15001,30024,3.8806,1.0576,0.23993,,4.2567,-0.58213,,,,,4.2567,-0.58216,0.00933122,3.997,0.0056
-0.15002,30204,3.8789,1.0651,,0.0,4.2858,-0.58191,,,,,4.2858,-0.581858,0.0100245,3.997,0.0056
-0.15001,30384,3.8768,1.0726,0.0,,4.3149,-0.58156,,,,,4.3149,-0.581588,0.010528,3.75533,0.0056
-0.15002,30564,3.8749,1.0801,,3.8959,4.344,-0.58131,,,,,4.344,-0.581294,0.00974215,3.75533,0.0056
-0.15001,30744,3.873,1.0876,0.0,,4.3731,-0.58099,,,,,4.3731,-0.580973,0.0117133,3.75533,0.0056
-0.15001,30924,3.8707,1.0951,0.25961,0.0,4.4021,-0.58064,,,,,4.4021,-0.580656,0.0105304,3.5022,0.0056
-0.15001,31104,3.8688,1.1026,,0.0,4.4311,-0.58036,,,,,4.4311,-0.580347,0.00989595,3.5022,0.0056
-0.15001,31284,3.8664,1.1101,0.0,,4.4601,-0.58,,,,,4.4601,-0.580029,0.0121718,3.5022,0.0056
-0.15,31463.973,3.8642,1.1176,,,4.4891,-0.57963,,,,,4.4891,-0.579678,0.0121297,3.26141,0.0056
-0.15001,31644,3.862,1.1251,0.0,0.0,4.5181,-0.57934,3.862,1.1251,-3.16557,-0.316,4.5181,-0.579318,0.0123639,3.26141,0.0056
-0.15001,31824,3.8595,1.1326,,,4.5471,-0.57896,,,,,4.5471,-0.578971,0.0129148,3.00828,0.0056
-0.15001,32004,3.8572,1.1401,0.0,0.0,4.576,-0.57862,,,,,4.576,-0.578598,0.012653,3.00828,0.0056
-0.15002,32184,3.8545,1.1476,,,4.6049,-0.57825,,,,,4.6049,-0.578231,0.0133796,2.76662,0.0056
-0.15001,32364,3.8519,1.1551,0.0,0.0,4.6338,-0.57782,,,,,4.6338,-0.577823,0.0142762,2.76662,0.0056
-0.15001,32544,3.849,1.1626,0.0,,4.6627,-0.57739,,,,,4.6627,-0.577391,0.0153166,2.54973,0.0056
-0.15001,32723.975,3.8461,1.1701,,0.0,4.6916,-0.57695,3.8461,1.1701,-2.6462,-0.38,4.6916,-0.576943,0.0144898,2.54973,0.0056
-0.15001,32904,3.8431,1.1776,0.0,0.0,4.7204,-0.5765,,,,,4.7204,-0.576501,0.0161446,2.35197,0.0056
-0.15001,33083.973,3.8397,1.1851,,2.3696,4.7492,-0.57599,,,,,4.7492,-0.576031,0.0171438,2.35197,0.0056
-0.15002,33263.973,3.8365,1.1926,0.0,,4.778,-0.57555,,,,,4.778,-0.575501,0.0188228,2.16957,0.0056
-0.15001,33444,3.8328,1.2001,,0.0,4.8068,-0.57496,,,,,4.8068,-0.574964,0.0198126,2.16957,0.0056
-0.15,33624,3.8293,1.2076,,,4.8355,-0.5744,,,,,4.8355,-0.574404,0.0186371,2.05874,0.0056
-0.15,33804,3.8255,1.2151,0.0,,4.8642,-0.57383,3.8255,1.2151,-1.93942,-0.515714,4.8642,-0.573849,0.0196885,2.01957,0.0056
-0.15001,33984,3.8216,1.2226,,0.0,4.8929,-0.57328,3.8216,1.2226,-2.00641,-0.5,4.8929,-0.573298,0.0190059,2.01957,0.0056
-0.15001,34164,3.818,1.2301,0.0,0.0,4.9215,-0.57274,3.818,1.2301,-2.00641,-0.5,4.9215,-0.572731,0.0193646,2.04342,0.0056
-0.15002,34344,3.8141,1.2376,,,4.9502,-0.57219,3.8141,1.2376,-2.03891,-0.493333,4.9502,-0.572197,0.0189911,2.09884,0.0056
-0.15002,34524,3.8106,1.2451,0.4973,0.0,4.9788,-0.57167,3.8106,1.2451,-2.15628,-0.46381,4.9788,-0.571646,0.0184547,2.09884,0.0056
-0.15001,34704,3.8071,1.2526,,0.0,5.0073,-0.5711,,,,,5.0073,-0.57111,0.0185585,2.19343,0.0056
-0.15002,34884,3.8036,1.2601,0.0,,5.0359,-0.57062,,,,,5.0359,-0.570612,0.0169047,2.34343,0.0056
-0.15001,35064,3.8006,1.2676,0.44969,0.0,5.0644,-0.57013,,,,,5.0644,-0.570135,0.0156496,2.34343,0.0056
-0.15002,35244,3.7974,1.2751,,0.0,5.0929,-0.56969,,,,,5.0929,-0.569681,0.0158459,2.55739,0.0056
-0.15001,35423.973,3.7945,1.2826,0.0,2.5059,5.1214,-0.56921,3.7945,1.2826,-2.63444,-0.380222,5.1214,-0.569244,0.0151304,2.55739,0.0056
-0.15001,35604,3.7918,1.2901,,,5.1498,-0.56881,,,,,5.1498,-0.568819,0.0143467,2.77989,0.0056
-0.15001,35783.974,3.789,1.2976,0.0,,5.1782,-0.56839,,,,,5.1782,-0.568422,0.0146416,2.77989,0.0056
-0.15002,35964,3.7865,1.3051,,0.0,5.2066,-0.56805,3.7865,1.3051,-2.95684,-0.338222,5.2066,-0.568009,0.0135059,2.93755,0.0056
-0.15002,36144,3.7839,1.3126,0.0,,5.235,-0.56766,,,,,5.235,-0.56765,0.0128667,2.93755,0.0056
-0.15002,36324,3.7813,1.3201,,0.0,5.2634,-0.56727,,,,,5.2634,-0.567296,0.0125127,3.04365,0.0056
-0.15001,36504,3.7791,1.3276,0.0,,5.2918,-0.5669,,,,,5.2918,-0.566896,0.014241,3.04365,0.0056
-0.15001,36684,3.7765,1.3351,,0.0,5.3201,-0.56651,,,,,5.3201,-0.566532,0.0124051,3.13146,0.0056
-0.15002,36864,3.7742,1.3426,0.0,,5.3484,-0.56621,3.7742,1.3426,-3.125,-0.32,5.3484,-0.566175,0.0121163,3.13146,0.0056
-0.15001,37044,3.7716,1.3501,,0.0,5.3767,-0.56578,,,,,5.3767,-0.565829,0.013133,3.13146,0.0056
-0.15002,37224,3.7693,1.3576,0.0,,5.405,-0.56547,,,,,5.405,-0.565466,0.0123618,3.17448,0.0056
-0.15001,37404,3.767,1.3651,,0.0,5.4333,-0.56509,,,,,5.4333,-0.565092,0.0139779,3.17448,0.0056
-0.15,37584,3.7646,1.3726,0.0,3.1822,5.4615,-0.56469,,,,,5.4615,-0.564721,0.0124609,3.17834,0.0056
-0.15001,37764,3.7623,1.3801,,,5.4897,-0.56438,3.7623,1.3801,-3.1882,-0.313939,5.4897,-0.564386,0.011805,3.17834,0.0056
-0.15001,37944,3.7599,1.3876,,3.1801,5.5179,-0.56402,,,,,5.5179,-0.564067,0.0124994,3.17063,0.0056
-0.15002,38124,3.7577,1.3951,0.0,,5.5461,-0.56373,3.7577,1.3951,-3.1882,-0.313939,5.5461,-0.563711,0.0129681,3.17063,0.0056
-0.15002,38304,3.7551,1.4026,,3.2019,5.5743,-0.56334,,,,,5.5743,-0.563344,0.0138546,3.17063,0.0056
-0.15001,38483.973,3.7528,1.4101,0.0,,5.6025,-0.56296,,,,,5.6025,-0.562973,0.0127647,3.13443,0.0056
-0.15001,38664,3.7506,1.4176,0.31499,0.0,5.6306,-0.56263,,,,,5.6306,-0.562614,0.0122291,3.13443,0.0056
-0.15002,38844,3.748,1.4251,,0.0,5.6587,-0.56227,,,,,5.6587,-0.56227,0.0124543,3.12673,0.0056
-0.15001,39024,3.7458,1.4326,0.0,,5.6868,-0.56191,3.7458,1.4326,-3.08736,-0.324,5.6868,-0.56192,0.0124617,3.12673,0.0056
-0.15002,39204,3.7433,1.4401,,0.0,5.7149,-0.56157,,,,,5.7149,-0.561566,0.0130971,3.12673,0.0056
-0.15002,39384,3.7409,1.4476,0.31902,,5.743,-0.56121,,,,,5.743,-0.561196,0.0131672,3.11526,0.0056
-0.15002,39564,3.7386,1.4551,,0.0,5.771,-0.56086,,,,,5.771,-0.560828,0.0129688,3.11526,0.0056
-0.15002,39744,3.736,1.4626,,,5.7991,-0.56047,,,,,5.7991,-0.560469,0.0127415,3.10287,0.0056
-0.15001,39924,3.7338,1.4701,0.0,0.0,5.8271,-0.56011,3.7338,1.4701,-3.08736,-0.324,5.8271,-0.5601,0.0127052,3.10287,0.0056
-0.15001,40103.973,3.7313,1.4776,,,5.8551,-0.55973,,,,,5.8551,-0.559735,0.0130198,3.09521,0.0056
-0.15001,40284,3.7288,1.4851,0.0,,5.8831,-0.55936,,,,,5.8831,-0.559373,0.0127466,3.09521,0.0056
-0.15001,40464,3.7265,1.4926,,0.0,5.911,-0.55901,,,,,5.911,-0.558997,0.0132316,3.09521,0.0056
-0.15001,40644,3.7239,1.5001,0.0,,5.939,-0.55862,,,,,5.939,-0.558646,0.0123079,3.10287,0.0056
-0.15002,40824,3.7217,1.5076,,0.0,5.9669,-0.55833,3.7217,1.5076,-3.1375,-0.318735,5.9669,-0.558278,0.0129734,3.10287,0.0056
-0.15,41004,3.7191,1.5152,0.0,,5.9948,-0.55787,,,,,5.9948,-0.557911,0.0134509,3.12292,0.0056
-0.15001,41184,3.7167,1.5227,,0.0,6.0227,-0.55754,,,,,6.0227,-0.557566,0.0115598,3.12292,0.0056
-0.15001,41364,3.7145,1.5302,0.0,,6.0506,-0.55721,,,,,6.0506,-0.557205,0.0137626,3.15443,0.0056
-0.15001,41544,3.7119,1.5377,,0.0,6.0784,-0.55682,,,,,6.0784,-0.556845,0.0136852,3.15443,0.0056
-0.15002,41724,3.7096,1.5452,,3.1405,6.1062,-0.55651,3.7096,1.5452,-3.1737,-0.316,6.1062,-0.556476,0.0120713,3.15443,0.0056
-0.15002,41904,3.7072,1.5527,0.0,,6.134,-0.55615,,,,,6.134,-0.556138,0.0129453,3.19365,0.0056
-0.15001,42084,3.7048,1.5602,,3.1978,6.1618,-0.55576,,,,,6.1618,-0.555793,0.0123215,3.19365,0.0056
-0.15001,42264,3.7026,1.5677,0.0,,6.1896,-0.55543,,,,,6.1896,-0.555434,0.0130792,3.26907,0.0056
-0.15001,42444,3.7002,1.5752,0.31248,3.2154,6.2174,-0.55507,,,,,6.2174,-0.555096,0.01196,3.26907,0.0056
-0.15002,42624,3.6981,1.5827,,,6.2451,-0.55479,3.6981,1.5827,-3.28947,-0.304,6.2451,-0.554757,0.0120524,3.34454,0.0056
-0.15001,42804,3.6956,1.5902,0.0,0.0,6.2729,-0.55438,,,,,6.2729,-0.55442,0.0126148,3.34454,0.0056
-0.15001,42984,3.6936,1.5977,,0.0,6.3006,-0.55408,,,,,6.3006,-0.554077,0.0120738,3.34454,0.0056
-0.15002,43164,3.6912,1.6052,0.0,,6.3283,-0.55375,,,,,6.3283,-0.553739,0.0131561,3.41907,0.0056
-0.15002,43344,3.689,1.6127,0.0,,6.356,-0.55342,,,,,6.356,-0.553395,0.0114591,3.41907,0.0056
-0.15002,43524,3.687,1.6202,,0.0,6.3836,-0.55312,,,,,6.3836,-0.553083,0.0117526,3.51751,0.0056
-0.15001,43704,3.6846,1.6277,0.0,3.4662,6.4113,-0.55273,,,,,6.4113,-0.552778,0.0114331,3.51751,0.0056
-0.15002,43884,3.6827,1.6352,,,6.4389,-0.55248,,,,,6.4389,-0.55245,0.0113763,3.51751,0.0056
-0.15001,44064,3.6806,1.6427,0.28675,0.0,6.4665,-0.55213,,,,,6.4665,-0.55212,0.0125861,3.66074,0.0056
-0.15001,44244,3.6784,1.6502,,0.0,6.4941,-0.5518,3.6784,1.6502,-3.73082,-0.26819,6.4941,-0.551804,0.0107746,3.66074,0.0056
-0.15001,44424,3.6765,1.6577,0.0,,6.5217,-0.55151,,,,,6.5217,-0.551496,0.0106035,3.66074,0.0056
-0.15001,44603.973,3.6743,1.6652,,,6.5493,-0.55118,,,,,6.5493,-0.551192,0.0116169,3.79158,0.0056
-0.15,44784,3.6723,1.6727,0.0,0.0,6.5768,-0.55085,,,,,6.5768,-0.550886,0.0102298,3.79158,0.0056
-0.15001,44964,3.6705,1.6802,0.27028,,6.6043,-0.55061,,,,,6.6043,-0.550597,0.010421,3.79158,0.0056
-0.15,45144,3.6684,1.6877,,0.0,6.6319,-0.55026,,,,,6.6319,-0.550317,0.0102822,3.89679,0.0056
-0.15001,45324,3.6667,1.6952,0.0,,6.6594,-0.55004,,,,,6.6594,-0.550038,0.00985341,3.89679,0.0056
-0.15001,45504,3.6646,1.7027,,,6.6869,-0.54973,,,,,6.6869,-0.549755,0.0113501,4.05534,0.0056
-0.15001,45684,3.6628,1.7102,0.0,0.0,6.7143,-0.54946,,,,,6.7143,-0.54946,0.00993654,4.05534,0.0056
-0.15002,45864,3.6611,1.7177,,,6.7418,-0.54924,,,,,6.7418,-0.549196,0.00983938,4.05534,0.0056
-0.15002,46044,3.659,1.7252,0.0,,6.7693,-0.54892,,,,,6.7693,-0.548935,0.00969294,4.24247,0.0056
-0.15002,46224,3.6574,1.7327,,0.0,6.7967,-0.54868,,,,,6.7967,-0.548652,0.00975663,4.24247,0.0056
-0.15002,46404,3.6555,1.7402,0.0,,6.8241,-0.5484,,,,,6.8241,-0.548398,0.00930867,4.24247,0.0056
-0.15002,46584,3.6539,1.7477,,0.0,6.8515,-0.54816,3.6539,1.7477,-4.26535,-0.234725,6.8515,-0.548128,0.00877647,4.24247,0.0056
-0.15002,46764,3.652,1.7552,0.0,,6.8789,-0.54787,,,,,6.8789,-0.547876,0.00980541,4.38393,0.0056
-0.15002,46943.973,3.6503,1.7627,0.23699,0.0,6.9063,-0.54762,3.6503,1.7627,-4.38745,-0.229286,6.9063,-0.54762,0.00859812,4.38393,0.0056
-0.15002,47124,3.6488,1.7702,,0.0,6.9337,-0.54739,,,,,6.9337,-0.547361,0.00952765,4.38393,0.0056
-0.15001,47304,3.647,1.7777,0.0,,6.9611,-0.54709,,,,,6.9611,-0.547103,0.0103294,4.50623,0.0056
-0.15001,47484,3.6453,1.7852,,4.4662,6.9884,-0.54683,,,,,6.9884,-0.546846,0.00809831,4.50623,0.0056
-0.15002,47663.973,3.6438,1.7927,0.0,0.0,7.0158,-0.54664,,,,,7.0158,-0.546606,0.00877882,4.50623,0.0056
-0.15001,47844,3.642,1.8002,,,7.0431,-0.54634,3.642,1.8002,-4.56373,-0.219905,7.0431,-0.546379,0.00944696,4.62941,0.0056
-0.15001,48024,3.6405,1.8077,0.22264,0.0,7.0704,-0.54611,,,,,7.0704,-0.546122,0.0082187,4.62941,0.0056
-0.15002,48204,3.6388,1.8152,,0.0,7.0977,-0.54589,,,,,7.0977,-0.545883,0.00922539,4.62941,0.0056
-0.15001,48384,3.6372,1.8227,0.0,,7.125,-0.54562,,,,,7.125,-0.545641,0.0086452,4.62941,0.0056
-0.15,48564,3.6357,1.8302,,0.0,7.1523,-0.54536,,,,,7.1523,-0.545397,0.00907755,4.7355,0.0056
-0.15001,48744,3.634,1.8377,0.0,0.0,7.1795,-0.54514,3.634,1.8377,-4.79757,-0.209143,7.1795,-0.545163,0.00844668,4.7355,0.0056
-0.15002,48924,3.6326,1.8452,,,7.2068,-0.54496,,,,,7.2068,-0.544931,0.00873614,4.7355,0.0056
-0.15002,49103.974,3.6309,1.8527,0.0,0.0,7.234,-0.54471,,,,,7.234,-0.544705,0.00868619,4.85014,0.0056
-0.15002,49284,3.6294,1.8602,0.0,,7.2612,-0.54448,,,,,7.2612,-0.544463,0.0079904,4.85014,0.0056
-0.15002,49464,3.6278,1.8677,,0.0,7.2885,-0.54424,,,,,7.2885,-0.544243,0.00882735,4.85014,0.0056
-0.15001,49644,3.6262,1.8752,0.0,,7.3157,-0.54397,3.6262,1.8752,-4.79757,-0.209143,7.3157,-0.544001,0.00810616,4.85014,0.0056
-0.15002,49824,3.6248,1.8827,,,7.3429,-0.54379,,,,,7.3429,-0.54377,0.00805463,4.95035,0.0056
-0.15001,50004,3.6231,1.8902,0.0,,7.37,-0.5435,,,,,7.37,-0.543554,0.00852815,4.95035,0.0056
-0.15002,50184,3.6217,1.8977,,0.0,7.3972,-0.54333,,,,,7.3972,-0.543317,0.00837256,4.95035,0.0056
-0.15002,50364,3.6202,1.9052,,4.8984,7.4244,-0.5431,,,,,7.4244,-0.543081,0.00899044,4.95035,0.0056
-0.15001,50544,3.6186,1.9127,0.0,,7.4515,-0.54283,,,,,7.4515,-0.542854,0.0083434,4.958,0.0056
-0.15002,50724,3.6172,1.9202,,0.0,7.4787,-0.54265,,,,,7.4787,-0.542617,0.00890994,4.958,0.0056
-0.15001,50903.974,3.6155,1.9277,0.0,,7.5058,-0.54236,,,,,7.5058,-0.542388,0.00828966,4.958,0.0056
-0.15002,51084,3.6142,1.9352,,0.0,7.5329,-0.5422,3.6142,1.9352,-4.93056,-0.205,7.5329,-0.542172,0.00722611,4.87785,0.0056
-0.15002,51264,3.6125,1.9427,0.0,,7.56,-0.54195,,,,,7.56,-0.541948,0.00871018,4.87785,0.0056
-0.15001,51444,3.6109,1.9502,,0.0,7.5871,-0.54167,,,,,7.5871,-0.541716,0.00822196,4.87785,0.0056
-0.15001,51624,3.6095,1.9577,0.0,,7.6142,-0.54146,,,,,7.6142,-0.541481,0.00913917,4.87785,0.0056
-0.15001,51804,3.6078,1.9652,,0.0,7.6412,-0.54121,,,,,7.6412,-0.541228,0.00911164,4.78707,0.0056
-0.15002,51984,3.6064,1.9727,0.0,,7.6683,-0.54103,,,,,7.6683,-0.541004,0.0084447,4.78707,0.0056
-0.15002,52164,3.6047,1.9802,,4.8625,7.6953,-0.54078,,,,,7.6953,-0.54078,0.00903779,4.78707,0.0056
-0.15001,52344,3.6033,1.9877,0.0,,7.7224,-0.54053,,,,,7.7224,-0.540523,0.00969179,4.78707,0.0056
-0.15002,52524,3.6016,1.9952,,0.0,7.7494,-0.54031,,,,,7.7494,-0.540294,0.007669,4.68482,0.0056
-0.15003,52703.973,3.6001,2.0027,,4.7719,7.7764,-0.54012,,,,,7.7764,-0.540079,0.00825045,4.68482,0.0056
-0.15001,52884,3.5986,2.0102,0.0,,7.8034,-0.53983,,,,,7.8034,-0.539841,0.00925278,4.68482,0.0056
-0.15003,53063.974,3.5968,2.0177,,0.0,7.8304,-0.53963,,,,,7.8304,-0.539601,0.00802383,4.54248,0.0056
-0.15001,53244,3.5954,2.0252,0.0,,7.8574,-0.53935,,,,,7.8574,-0.539347,0.00952991,4.54248,0.0056
-0.15001,53424,3.5935,2.0327,,0.0,7.8843,-0.53906,,,,,7.8843,-0.53911,0.00878658,4.54248,0.0056
-0.15003,53604,3.592,2.0402,0.0,,7.9113,-0.53891,,,,,7.9113,-0.538879,0.00858327,4.54248,0.0056
-0.15001,53784,3.5904,2.0477,0.2151,0.0,7.9382,-0.5386,,,,,7.9382,-0.538599,0.01151,4.36388,0.0056
-0.15001,53964,3.5885,2.0552,,0.0,7.9651,-0.53831,,,,,7.9651,-0.538348,0.00905106,4.36388,0.0056
-0.15004,54144,3.5869,2.0627,0.0,,7.992,-0.53818,,,,,7.992,-0.538099,0.00914021,4.36388,0.0056
-0.15002,54324,3.5852,2.0702,,4.3562,8.0189,-0.53785,,,,,8.0189,-0.537838,0.0107816,4.20534,0.0056
-0.15002,54504,3.5833,2.0777,0.0,,8.0458,-0.53757,,,,,8.0458,-0.537584,0.00816626,4.20534,0.0056
-0.15003,54684,3.5817,2.0852,,0.0,8.0727,-0.53736,,,,,8.0727,-0.537318,0.0102758,4.20534,0.0056
-0.15001,54863.974,3.5797,2.0927,,4.1896,8.0996,-0.53699,,,,,8.0996,-0.537031,0.0109525,4.09924,0.0056
-0.15002,55044,3.5779,2.1002,0.0,,8.1264,-0.53676,3.5779,2.1002,-3.96123,-0.252454,8.1264,-0.536748,0.00954729,4.09924,0.0056
-0.15002,55224,3.5761,2.1077,,0.0,8.1532,-0.53649,,,,,8.1532,-0.536474,0.010163,4.09924,0.0056
-0.15003,55404,3.5741,2.1152,0.0,,8.1801,-0.53622,3.5741,2.1152,-4.00479,-0.249817,8.1801,-0.536186,0.0117166,4.00465,0.0056
-0.15,55583.973,3.5723,2.1227,,0.0,8.2069,-0.53585,,,,,8.2069,-0.535867,0.0110262,4.00465,0.0056
-0.15001,55764,3.5703,2.1302,0.24929,,8.2336,-0.53558,,,,,8.2336,-0.535598,0.00926177,4.00465,0.0056
-0.15002,55944,3.5685,2.1377,,0.0,8.2604,-0.53535,,,,,8.2604,-0.535351,0.0103324,3.89002,0.0056
-0.15002,56124,3.5666,2.1452,0.0,,8.2872,-0.53506,,,,,8.2872,-0.535061,0.0116864,3.89002,0.0056
-0.15002,56304,3.5646,2.1527,,3.9633,8.3139,-0.53476,,,,,8.3139,-0.534765,0.0109374,3.89002,0.0056
-0.15002,56484,3.5627,2.1602,0.0,,8.3406,-0.53448,,,,,8.3406,-0.534474,0.0109033,3.75533,0.0056
-0.15003,56664,3.5605,2.1677,0.25865,0.0,8.3674,-0.53418,,,,,8.3674,-0.534167,0.0114573,3.75533,0.0056
-0.15001,56844,3.5587,2.1752,,0.0,8.3941,-0.53384,,,,,8.3941,-0.533842,0.0117218,3.75533,0.0056
-0.15001,57024,3.5565,2.1827,0.0,,8.4208,-0.53351,,,,,8.4208,-0.533558,0.0106755,3.62449,0.0056
-0.15002,57204,3.5547,2.1902,,3.7455,8.4474,-0.53328,,,,,8.4474,-0.533254,0.0117218,3.62449,0.0056
-0.15001,57384,3.5525,2.1977,0.0,,8.4741,-0.53291,,,,,8.4741,-0.532924,0.0129135,3.51074,0.0056
-0.15002,57564,3.5503,2.2052,0.27354,0.0,8.5007,-0.53262,3.5503,2.2052,-3.53416,-0.28303,8.5007,-0.532619,0.0117454,3.51074,0.0056
-0.15002,57743.973,3.5483,2.2127,,0.0,8.5273,-0.53232,,,,,8.5273,-0.532289,0.0125486,3.51074,0.0056
-0.15002,57924,3.546,2.2202,0.0,,8.5539,-0.53197,3.546,2.2202,-3.38278,-0.296121,8.5539,-0.531959,0.0132126,3.36839,0.0056
-0.15002,58104,3.5437,2.2277,,,8.5805,-0.53163,,,,,8.5805,-0.531625,0.0126121,3.36839,0.0056
-0.15002,58284,3.5416,2.2352,0.0,0.0,8.6071,-0.53131,,,,,8.6071,-0.531289,0.0126372,3.36839,0.0056
-0.15003,58464,3.5391,2.2427,0.0,,8.6337,-0.53097,,,,,8.6337,-0.530955,0.0131478,3.20897,0.0056
-0.15002,58644,3.5369,2.2502,,0.0,8.6602,-0.53061,,,,,8.6602,-0.530589,0.0142098,3.20897,0.0056
-0.15002,58823.975,3.5344,2.2577,0.0,3.1616,8.6867,-0.53023,,,,,8.6867,-0.530229,0.0125788,3.11053,0.0056
-0.15003,59004,3.5321,2.2652,,,8.7132,-0.52992,,,,,8.7132,-0.529881,0.0129215,3.11053,0.0056
-0.15002,59184,3.5296,2.2727,,3.1353,8.7397,-0.52951,,,,,8.7397,-0.529526,0.0144059,3.0675,0.0056
-0.15002,59364,3.5271,2.2802,0.0,,8.7662,-0.52914,,,,,8.7662,-0.529147,0.0132867,3.0675,0.0056
-0.15003,59544,3.5247,2.2877,,3.0266,8.7926,-0.52881,,,,,8.7926,-0.528773,0.01488,3.05896,0.0056
-0.15002,59724,3.522,2.2952,0.0,,8.8191,-0.52837,3.522,2.2952,-2.97957,-0.336,8.8191,-0.528393,0.014283,3.05896,0.0056
-0.15002,59904,3.5198,2.3027,,3.0055,8.8455,-0.52804,,,,,8.8455,-0.528019,0.0133463,3.05896,0.0056
-0.15002,60084,3.5171,2.3102,0.0,,8.8719,-0.52764,,,,,8.8719,-0.527657,0.0142765,3.09521,0.0056
-0.15002,60264,3.5147,2.3177,,3.0549,8.8982,-0.52728,,,,,8.8982,-0.527289,0.0138589,3.09521,0.0056
-0.15001,60444,3.5124,2.3252,0.0,,8.9246,-0.5269,,,,,8.9246,-0.526901,0.0145886,3.14678,0.0056
-0.15001,60624,3.5099,2.3327,0.32274,3.0983,8.9509,-0.52652,3.5099,2.3327,-3.16557,-0.316,8.9509,-0.526548,0.0131,3.14678,0.0056
-0.15002,60804,3.5077,2.3402,,,8.9772,-0.52623,,,,,8.9772,-0.526211,0.0121382,3.17068,0.0056
-0.15002,60984,3.5054,2.3477,0.0,0.0,9.0035,-0.52588,,,,,9.0035,-0.525874,0.0138417,3.17068,0.0056
-0.15002,61164,3.5029,2.3552,,0.0,9.0298,-0.52551,,,,,9.0298,-0.525534,0.0125037,3.17068,0.0056
-0.15002,61344,3.5008,2.3627,0.31198,,9.0561,-0.52519,,,,,9.0561,-0.525173,0.0139452,3.15532,0.0056
-0.15001,61524,3.4983,2.3702,,0.0,9.0823,-0.52478,3.4983,2.3702,-3.16557,-0.316,9.0823,-0.524812,0.0135429,3.15532,0.0056
-0.15002,61704,3.4961,2.3777,0.0,,9.1086,-0.52448,,,,,9.1086,-0.524454,0.0127629,3.05604,0.0056
-0.15001,61884,3.4936,2.3852,,,9.1348,-0.52407,,,,,9.1348,-0.524103,0.014263,3.05604,0.0056
-0.15002,62064,3.491,2.3927,0.0,0.0,9.161,-0.52372,,,,,9.161,-0.523734,0.0139098,2.9175,0.0056
-0.15002,62244,3.4886,2.4002,0.0,,9.1872,-0.52336,,,,,9.1872,-0.523344,0.0153905,2.9175,0.0056
-0.15002,62424,3.4859,2.4077,,0.0,9.2133,-0.52295,3.4859,2.4077,-2.79718,-0.358444,9.2133,-0.522946,0.0157249,2.9175,0.0056
-0.15002,62604,3.4832,2.4152,0.0,0.0,9.2395,-0.52255,,,,,9.2395,-0.522544,0.0155488,2.73598,0.0056
-0.15002,62784,3.4805,2.4227,0.35915,,9.2656,-0.52214,,,,,9.2656,-0.522118,0.017153,2.73598,0.0056
-0.15003,62964,3.4774,2.4302,,0.0,9.2917,-0.52171,,,,,9.2917,-0.521689,0.0166225,2.545,0.0056
-0.15003,63144,3.4746,2.4377,0.0,2.5147,9.3177,-0.52129,3.4746,2.4377,-2.47592,-0.405,9.3177,-0.521224,0.0180622,2.545,0.0056
-0.15,63324,3.4713,2.4452,,,9.3438,-0.5207,,,,,9.3438,-0.520757,0.0179809,2.4065,0.0056
-0.15002,63504,3.4682,2.4528,0.0,,9.3698,-0.5203,,,,,9.3698,-0.520298,0.0171463,2.37495,0.0056
-0.15002,63684,3.465,2.4603,,2.3451,9.3958,-0.51982,,,,,9.3958,-0.5198,0.0201069,2.37495,0.0056
-0.15002,63864,3.4617,2.4678,0.0,,9.4218,-0.51932,3.4617,2.4678,-2.41034,-0.415,9.4218,-0.519315,0.0182991,2.41124,0.0056
-0.15002,64044,3.4588,2.4753,,,9.4477,-0.51889,,,,,9.4477,-0.518855,0.0163344,2.41124,0.0056
-0.15002,64224,3.4557,2.4828,0.0,0.0,9.4737,-0.51842,,,,,9.4737,-0.51843,0.0172251,2.45983,0.0056
-0.15002,64404,3.4527,2.4903,,0.0,9.4996,-0.51797,,,,,9.4996,-0.517988,0.0174202,2.45983,0.0056
-0.15002,64584,3.4498,2.4978,,2.5005,9.5255,-0.51754,3.4498,2.4978,-2.46989,-0.405,9.5255,-0.517512,0.0182631,2.41978,0.0056
-0.15002,64764,3.4465,2.5053,,,9.5513,-0.51704,,,,,9.5513,-0.517054,0.0182443,2.41978,0.0056
-0.15002,64943.973,3.4435,2.5128,0.0,,9.5772,-0.51659,,,,,9.5772,-0.51658,0.0182821,2.35109,0.0056
-0.15002,65124,3.4402,2.5203,0.42385,0.0,9.603,-0.5161,,,,,9.603,-0.516093,0.0200236,2.35109,0.0056
-0.15002,65304,3.4367,2.5278,,0.0,9.6288,-0.51557,,,,,9.6288,-0.515572,0.0204261,2.35109,0.0056
-0.15001,65484,3.4335,2.5353,0.0,,9.6546,-0.51506,3.4335,2.5353,-2.25136,-0.444286,9.6546,-0.515054,0.0186368,2.48104,0.0056
-0.15002,65664,3.4302,2.5428,0.43655,0.0,9.6803,-0.5146,3.4302,2.5428,-2.40627,-0.418571,9.6803,-0.514614,0.0170366,2.48104,0.0056
-0.15002,65844,3.4273,2.5503,,0.0,9.706,-0.51416,,,,,9.706,-0.514164,0.0172643,2.79636,0.0056
-0.15002,66024,3.4245,2.5578,0.0,2.5862,9.7317,-0.51374,,,,,9.7317,-0.513737,0.0164877,2.79636,0.0056
-0.15002,66204,3.4219,2.5653,,,9.7574,-0.51335,3.4219,2.5653,-3.18813,-0.32,9.7574,-0.513367,0.0133137,3.31595,0.0056
-0.15002,66384,3.4199,2.5728,,3.1207,9.7831,-0.51305,,,,,9.7831,-0.513028,0.0129617,3.31595,0.0056
-0.15001,66564,3.4177,2.5803,0.0,,9.8087,-0.51269,,,,,9.8087,-0.512718,0.0125819,3.86881,0.0056
-0.15001,66744,3.416,2.5878,,0.0,9.8343,-0.51243,,,,,9.8343,-0.512427,0.00978048,3.86881,0.0056
-0.15002,66924,3.4142,2.5953,0.0,,9.8599,-0.5122,3.4142,2.5953,-4.21809,-0.237143,9.8599,-0.512175,0.0103047,3.86881,0.0056
-0.15002,67104,3.4123,2.6028,,0.0,9.8855,-0.51191,,,,,9.8855,-0.511922,0.0109495,4.16589,0.0056
-0.15002,67284,3.4107,2.6103,0.24787,,9.9111,-0.51167,,,,,9.9111,-0.511631,0.01031,4.16589,0.0056
-0.15002,67463.975,3.4089,2.6178,,,9.9367,-0.5114,,,,,9.9367,-0.511384,0.0103003,4.16589,0.0056
-0.15002,67644,3.4072,2.6253,0.0,0.0,9.9623,-0.51115,,,,,9.9623,-0.511131,0.00853663,4.16589,0.0056
-0.15002,67823.973,3.4056,2.6328,,,9.9878,-0.51091,,,,,9.9878,-0.510877,0.0101426,4.13257,0.0056
-0.15001,68004,3.4037,2.6403,0.0,0.0,10.013,-0.51059,,,,,10.013,-0.510629,0.0104951,4.13257,0.0056
-0.15002,68184,3.402,2.6478,,,10.039,-0.51037,3.402,2.6478,-4.12326,-0.246447,10.039,-0.510339,0.0105428,4.13257,0.0056
-0.15001,68364,3.4001,2.6553,,0.0,10.064,-0.51005,,,,,10.064,-0.510057,0.0121417,3.88236,0.0056
-0.15002,68544,3.398,2.6628,0.0,0.0,10.09,-0.50977,3.398,2.6628,-3.75,-0.266667,10.09,-0.509779,0.011165,3.88236,0.0056
-0.15003,68724,3.3962,2.6703,,,10.115,-0.50953,,,,,10.115,-0.509483,0.0116953,3.88236,0.0056
-0.15002,68904,3.394,2.6778,,,10.141,-0.50917,3.394,2.6778,-3.62391,-0.276667,10.141,-0.509176,0.0128878,3.56142,0.0056
-0.15002,69084,3.392,2.6853,0.0,0.0,10.166,-0.50887,,,,,10.166,-0.508847,0.0128087,3.56142,0.0056
-0.15001,69264,3.3897,2.6928,,3.4424,10.192,-0.50849,3.3897,2.6928,-3.33984,-0.300485,10.192,-0.50851,0.0134864,3.23756,0.0056
-0.15001,69444,3.3875,2.7003,0.0,,10.217,-0.50816,,,,,10.217,-0.508163,0.0134893,3.23756,0.0056
-0.15001,69624,3.385,2.7078,,0.0,10.243,-0.50778,,,,,10.243,-0.50781,0.0146865,3.23756,0.0056
-0.15002,69804,3.3824,2.7153,0.0,0.0,10.268,-0.50743,,,,,10.268,-0.507449,0.0151083,2.92516,0.0056
-0.15002,69984,3.38,2.7228,0.32252,2.9253,10.293,-0.50707,,,,,10.293,-0.507044,0.0165848,2.92516,0.0056
-0.15002,70164,3.3771,2.7303,,,10.319,-0.50663,,,,,10.319,-0.506642,0.0167126,2.62812,0.0056
-0.15002,70344,3.3744,2.7378,0.0,2.6939,10.344,-0.50623,3.3744,2.7378,-2.6053,-0.385,10.344,-0.506216,0.0177229,2.62812,0.0056
-0.15002,70523.974,3.3713,2.7453,,,10.369,-0.50576,,,,,10.369,-0.505769,0.0187602,2.38734,0.0056
-0.15002,70704,3.368,2.7528,0.0,,10.395,-0.50527,,,,,10.395,-0.505283,0.0195367,2.38734,0.0056
-0.15001,70884,3.3648,2.7603,,2.2376,10.42,-0.50475,,,,,10.42,-0.504759,0.0214042,2.17811,0.0056
-0.15002,71064,3.3611,2.7678,0.0,,10.445,-0.50423,,,,,10.445,-0.50422,0.0227258,1.97655,0.0056
-0.15003,71244,3.3573,2.7753,0.0,0.0,10.47,-0.5037,,,,,10.47,-0.503642,0.0230425,1.97655,0.0056
-0.15001,71424,3.353,2.7828,,,10.495,-0.50298,,,,,10.495,-0.503008,0.0267417,1.77113,0.0056
-0.15001,71604,3.3483,2.7903,,1.7104,10.52,-0.50228,,,,,10.52,-0.502313,0.0273837,1.55336,0.0056
-0.15001,71784,3.3433,2.7978,0.0,1.5347,10.546,-0.50153,,,,,10.546,-0.501551,0.0327857,1.3556,0.0056
-0.15001,71964,3.3373,2.8053,,,10.571,-0.50063,3.3373,2.8053,-1.15496,-0.866667,10.571,-0.500668,0.0384726,1.17408,0.0056
-0.15002,72144,3.3305,2.8128,0.88828,,10.596,-0.49964,3.3305,2.8128,-0.999422,-1.02,10.596,-0.499611,0.0454021,1.01169,0.0056
-0.15002,72324,3.3219,2.8203,,0.89903,10.621,-0.49835,3.3219,2.8203,-0.833333,-1.2,10.621,-0.498367,0.054863,0.802462,0.0056
-0.15002,72504,3.3121,2.8278,0.0,0.75634,10.645,-0.49688,,,,,10.645,-0.496864,0.0636812,0.739389,0.0056
-0.15002,72684,3.3002,2.8353,1.5764,,10.67,-0.4951,3.3002,2.8353,-0.610482,-1.64,10.67,-0.495102,0.0747157,0.593238,0.0056
-0.15002,72864,3.2868,2.8428,1.7505,0.56164,10.695,-0.49309,3.2868,2.8428,-0.532397,-1.88,10.695,-0.493104,0.08713,0.529281,0.0056
-0.15001,73043.975,3.2725,2.8503,,0.51176,10.72,-0.49091,3.2725,2.8503,-0.5004,-2,10.72,-0.49092,0.0893014,0.493916,0.0056
-0.15001,73224,3.257,2.8578,2.0297,0.47937,10.744,-0.48858,3.257,2.8578,-0.476277,-2.1,10.744,-0.488588,0.0998266,0.45855,0.0056
-0.15002,73404,3.2406,2.8653,,0.45428,10.768,-0.48615,3.2406,2.8653,-0.442547,-2.26,10.768,-0.486138,0.0984902,0.45855,0.0056
-0.15002,73584,3.2234,2.8728,,0.42846,10.793,-0.48357,3.2234,2.8728,-0.427913,-2.34,10.793,-0.483558,0.11182,0.430842,0.0056
-0.15001,73764,3.2048,2.8803,2.4461,0.4032,10.817,-0.48075,3.2048,2.8803,-0.39375,-2.54,10.817,-0.480798,0.118358,0.379278,0.0056
-0.15003,73944,3.1853,2.8878,2.6118,0.37814,10.841,-0.47789,3.1853,2.8878,-0.370411,-2.7,10.841,-0.477851,0.126691,0.379278,0.0056
-0.15002,74124,3.1642,2.8953,2.795,0.34603,10.865,-0.47469,3.1642,2.8953,-0.347222,-2.88,10.865,-0.474713,0.14734,0.343912,0.0056
-0.15002,74304,3.1419,2.9028,,0.32798,10.888,-0.47135,3.1419,2.9028,-0.316862,-3.16,10.888,-0.471326,0.145791,0.300006,0.0056
-0.15003,74484,3.1174,2.9103,3.2966,0.30212,10.912,-0.4677,3.1174,2.9103,-0.297619,-3.36,10.912,-0.467678,0.171481,0.308547,0.0056
-0.15002,74664,3.0909,2.9178,,0.27459,10.935,-0.4637,3.0909,2.9178,-0.268817,-3.72,10.935,-0.463711,0.172799,0.284691,0.0056
-0.15002,74844,3.062,2.9253,3.8873,0.24962,10.958,-0.45936,3.062,2.9253,-0.246604,-4.06,10.958,-0.459344,0.191365,0.236933,0.0056
-0.15002,75024,3.0294,2.9328,4.4817,0.22459,10.981,-0.45447,3.0294,2.9328,-0.219332,-4.56,10.981,-0.454491,0.232349,0.221617,0.0056
-0.15001,75204,2.993,2.9403,5.0166,0.19461,11.004,-0.44898,2.993,2.9403,-0.190384,-5.26,11.004,-0.448988,0.264321,0.193909,0.0056
-0.15002,75384,2.9507,2.9478,5.7764,0.16887,11.026,-0.44266,2.9507,2.9478,-0.164702,-6.08,11.026,-0.442663,0.306884,0.170053,0.0056
-0.15002,75564,2.9006,2.9553,6.9537,0.13912,11.048,-0.43515,2.9006,2.9553,-0.135102,-7.42,11.048,-0.435376,0.355153,0.122295,0.0056
-0.15002,75744,2.8361,2.9628,9.8995,0.099371,11.069,-0.42547,2.8361,2.9628,-0.0942812,-10.86,11.069,-0.425152,0.678658,0.114637,0.0056
-0.15001,75924,2.7078,2.9703,23.247,0.043082,11.09,-0.4062,2.7078,2.9703,-0.0436403,-22.94,11.09,-0.405825,1.10146,0.0515639,0.0056
-0.15003,76103.973,2.5393,2.9778,20.717,0.048942,11.11,-0.38097,2.5393,2.9778,-0.0492344,-20.3744,11.11,-0.381772,1.36584,0.0515639,0.0056
-0.14987,76151.4,2.5011,2.9798,19.612,0.051096,11.115,-0.37484,,,,,,,,0.0869296,0.0056