File: Data/processed_data/Cycle 72_charge.csv
Current(A),Test_Time(s),Voltage(V),Charge_Capacity(Ah),dV/dQ(V/Ah),dQ/dV(Ah/V),Charge_Energy(Wh),Power(W),Downsampled Voltage (V),Downsampled Capacity (Ah),dQ/dV from downsampled Voltage (Ah/V),dV/dQ from downsampled Cpacity (V/Ah),Downsampled Energy (Wh),Downsampled Power (W),dP/dE from downsampled Energy (W/Wh),dQ/dV from LEAN (Ah/V),Delta_V (V) in LEAN
0.14999,1043.66,4.2001,0.021738,0.0,0.0,0.091301,0.62997,,,,,0.091301,0.592661,3.16222,1.30692,0.0049
0.14998,80351.5,3.0416,0.024999,5.5313,0.18656,0.07398,0.45618,3.0416,0.024999,0.192513,5.2,0.07398,0.466139,-4.65781,2.98929,0.0049
0.14999,80531.5,3.0781,0.032498,4.7219,0.21959,0.09693,0.46168,3.0781,0.032498,0.220478,4.54,0.09693,0.446748,1.59323,3.05108,0.0049
0.15,80711.5,3.1098,0.039998,4.1918,0.24495,0.12014,0.46647,3.1098,0.039998,0.251319,3.98077,0.12014,0.466457,0.192026,3.12285,0.0049
0.14999,80891.5,3.1383,0.047497,3.744,0.27469,0.14356,0.47071,3.1383,0.047497,0.278052,3.6,0.14356,0.470689,0.17071,3.06106,0.0049
0.14999,81071.507,3.1637,0.054996,3.3403,0.30168,0.1672,0.47452,3.1637,0.054996,0.306956,3.26,0.1672,0.474522,0.154813,3.12285,0.0049
0.14999,81251.5,3.1871,0.062496,3.0976,0.32485,0.19101,0.47803,3.1871,0.062496,0.335601,2.98,0.19101,0.478019,0.140268,3.18477,0.0049
0.14998,81431.5,3.2084,0.069995,2.8682,0.36108,0.21499,0.4812,3.2084,0.069995,0.359749,2.78,0.21499,0.481245,0.128447,3.18477,0.0049
0.14999,81611.507,3.2285,0.077494,2.6628,0.385,0.23913,0.48424,3.2285,0.077494,0.397552,2.52054,0.23913,0.484216,0.119493,3.22673,0.0049
0.14999,81791.5,3.2468,0.084994,2.4701,0.41207,0.26341,0.48699,3.2468,0.084994,0.413196,2.42048,0.26341,0.486987,0.108934,3.2046,0.0049
0.14998,81971.5,3.2639,0.092493,2.2818,0.44076,0.28783,0.48952,3.2639,0.092493,0.454846,2.2,0.28783,0.489578,0.102357,3.31833,0.0049
0.14999,82151.5,3.2803,0.099993,,0.46972,0.31237,0.49201,3.2803,0.099993,0.476666,2.10119,0.31237,0.491979,0.0953892,3.27626,0.0049
0.14999,82331.5,3.2953,0.10749,2.0258,0.49791,0.33702,0.49426,3.2953,0.10749,0.505154,1.98,0.33702,0.494269,0.0887584,3.37027,0.0049
0.14999,82511.5,3.3097,0.11499,,0.52841,0.36179,0.49642,3.3097,0.11499,0.550646,1.82,0.36179,0.496403,0.0846786,3.34803,0.0049
0.14999,82691.5,3.3232,0.12249,1.7894,0.57189,0.38666,0.49845,3.3232,0.12249,0.563076,1.78,0.38666,0.498419,0.077561,3.40994,0.0049
0.14998,82871.5,3.3356,0.12999,1.7,0.59638,0.41163,0.50027,3.3356,0.12999,0.625,1.6,0.41163,0.500314,0.0734936,3.40994,0.0049
0.14999,83051.5,3.3474,0.13749,,,0.43669,0.50208,3.3474,0.13749,0.687249,1.46,0.43669,0.502056,0.067018,3.49157,0.0049
0.14999,83231.5,3.3578,0.14499,,0.73146,0.46183,0.50364,3.3578,0.14499,0.746601,1.34,0.46183,0.503641,0.0575998,3.63511,0.0049
0.14999,83411.5,3.3668,0.15249,,,0.48705,0.50499,3.3668,0.15249,0.910262,1.1,0.48705,0.504984,0.0489226,3.81833,0.0049
0.14999,83591.5,3.3741,0.15999,1.0646,1.0334,0.51233,0.50608,3.3741,0.15999,1.28096,0.81,0.51233,0.50606,0.0370112,4.0732,0.0049
0.14999,83771.5,3.3792,0.16749,,,0.53765,0.50685,,,,,0.53765,0.506863,0.026112,4.48399,0.0049
0.14999,83951.5,3.3832,0.17499,0.66056,1.7875,0.56301,0.50745,,,,,0.56301,0.507425,0.0199857,5.03809,0.0049
0.14998,84131.5,3.3862,0.18249,,,0.58839,0.50786,3.3862,0.18249,2.51115,0.40018,0.58839,0.507904,0.0182682,5.50082,0.0049
0.15,84311.5,3.3892,0.18999,0.0,,0.6138,0.50838,,,,,0.6138,0.508344,0.0160514,5.50082,0.0049
0.14999,84491.507,3.3915,0.19748,,0.0,0.63922,0.50869,,,,,0.63922,0.508714,0.0136051,5.81748,0.0049
0.14998,84671.5,3.3941,0.20498,0.0,,0.66467,0.50905,3.3941,0.20498,3.12891,0.32,0.66467,0.50907,0.0150306,5.81748,0.0049
0.14999,84851.5,3.3966,0.21248,,0.0,0.69013,0.50946,,,,,0.69013,0.509432,0.0138309,5.96872,0.0049
0.14999,85031.5,3.3987,0.21998,0.0,,0.71561,0.50977,,,,,0.71561,0.509794,0.0140325,5.96872,0.0049
0.14999,85211.506,3.4012,0.22748,,0.0,0.74111,0.51015,,,,,0.74111,0.510135,0.013646,6.18391,0.0049
0.14999,85391.5,3.4033,0.23498,,,0.76662,0.51046,,,,,0.76662,0.510469,0.0122196,6.18391,0.0049
0.14998,85571.5,3.4056,0.24248,0.0,0.0,0.79216,0.51077,,,,,0.79216,0.510786,0.0129638,6.42135,0.0049
0.14999,85751.5,3.4076,0.24998,,3.4871,0.8177,0.51111,,,,,0.8177,0.511101,0.0114933,6.42135,0.0049
0.14998,85931.5,3.4096,0.25748,0.0,,0.84327,0.51137,,,,,0.84327,0.511409,0.0117793,6.42135,0.0049
0.14999,86111.5,3.4118,0.26498,,0.0,0.86884,0.51174,,,,,0.86884,0.511714,0.0122293,6.60457,0.0049
0.14999,86291.5,3.4137,0.27248,0.0,,0.89444,0.51202,3.4137,0.27248,3.73082,0.26819,0.89444,0.512025,0.010752,6.60457,0.0049
0.14999,86471.5,3.4158,0.27998,,0.0,0.92005,0.51234,,,,,0.92005,0.512309,0.0111822,6.73813,0.0049
0.14999,86651.5,3.4176,0.28748,0.0,3.8443,0.94567,0.51261,,,,,0.94567,0.51259,0.0108007,6.73813,0.0049
0.14999,86831.5,3.4194,0.29498,,,0.97131,0.51288,,,,,0.97131,0.512884,0.011576,6.73813,0.0049
0.14999,87011.5,3.4215,0.30248,0.0,,0.99696,0.51319,,,,,0.99696,0.513162,0.0104446,6.77023,0.0049
0.14999,87191.5,3.4232,0.30998,,,1.0226,0.51345,,,,,1.0226,0.513444,0.01113,6.77023,0.0049
0.14999,87371.5,3.4253,0.31747,0.0,0.0,1.0483,0.51376,,,,,1.0483,0.513734,0.0129289,6.66636,0.0049
0.14999,87551.5,3.4271,0.32497,,,1.074,0.51403,,,,,1.074,0.514054,0.0106589,6.66636,0.0049
0.14998,87731.5,3.429,0.33247,0.0,0.0,1.0997,0.51428,,,,,1.0997,0.51432,0.0112376,6.66636,0.0049
0.14999,87911.5,3.4311,0.33997,,,1.1254,0.51463,,,,,1.1254,0.514585,0.0116588,6.49084,0.0049
0.14998,88091.5,3.4329,0.34747,,3.8227,1.1512,0.51487,,,,,1.1512,0.514911,0.0125836,6.49084,0.0049
0.14998,88271.5,3.4351,0.35497,0.0,,1.1769,0.5152,,,,,1.1769,0.515214,0.0127595,6.34958,0.0049
0.14999,88451.5,3.4371,0.36247,,0.0,1.2027,0.51553,,,,,1.2027,0.515532,0.0114992,6.34958,0.0049
0.14999,88631.5,3.4392,0.36997,0.0,0.0,1.2285,0.51585,,,,,1.2285,0.515847,0.0129696,6.34958,0.0049
0.14999,88811.5,3.4416,0.37747,,,1.2543,0.51621,,,,,1.2543,0.516185,0.0133884,6.12441,0.0049
0.14999,88991.5,3.4438,0.38497,0.0,,1.2801,0.51654,,,,,1.2801,0.516541,0.0131824,6.12441,0.0049
0.14998,89171.5,3.4463,0.39247,,0.0,1.3059,0.51688,3.4463,0.39247,3.07311,0.325556,1.3059,0.516874,0.0140484,5.84501,0.0049
0.14998,89351.5,3.4487,0.39997,0.0,,1.3318,0.51724,,,,,1.3318,0.517251,0.0147043,5.84501,0.0049
0.14999,89531.509,3.4511,0.40747,,0.0,1.3577,0.51763,,,,,1.3577,0.517638,0.0150622,5.6618,0.0049
0.14998,89711.5,3.4539,0.41497,,,1.3835,0.51802,3.4539,0.41497,2.81538,0.356,1.3835,0.518008,0.0148477,5.6618,0.0049
0.14998,89891.5,3.4565,0.42247,0.0,0.0,1.4095,0.51841,,,,,1.4095,0.518443,0.0163671,5.55035,0.0049
0.14999,90071.5,3.4594,0.42997,,,1.4354,0.51888,,,,,1.4354,0.518849,0.0167072,5.43662,0.0049
0.14998,90251.5,3.4621,0.43746,0.0,0.0,1.4613,0.51925,3.4621,0.43746,2.67377,0.375173,1.4613,0.519284,0.0158709,5.43662,0.0049
0.14999,90431.5,3.4651,0.44496,0.0,0.0,1.4873,0.51973,,,,,1.4873,0.51973,0.0175901,5.36485,0.0049
0.14999,90611.5,3.468,0.45246,,2.561,1.5133,0.52017,,,,,1.5133,0.520156,0.0158669,5.36485,0.0049
0.14999,90791.5,3.4709,0.45996,0.0,,1.5393,0.5206,,,,,1.5393,0.520612,0.017678,5.34501,0.0049
0.15,90971.5,3.4741,0.46746,,,1.5654,0.52112,3.4741,0.46746,2.53246,0.395,1.5654,0.521073,0.0182488,5.34501,0.0049
0.15,91151.5,3.477,0.47496,0.0,0.0,1.5914,0.52155,,,,,1.5914,0.52154,0.0166091,5.34501,0.0049
0.14998,91331.5,3.4801,0.48246,,0.0,1.6175,0.52195,,,,,1.6175,0.521952,0.0164912,5.36485,0.0049
0.14998,91511.5,3.4829,0.48996,0.39942,2.5209,1.6436,0.52237,,,,,1.6436,0.522398,0.0171623,5.36485,0.0049
0.14999,91691.5,3.486,0.49746,,,1.6698,0.52287,3.486,0.49746,2.50313,0.4,1.6698,0.522855,0.0179206,5.39695,0.0049
0.15,91871.5,3.4888,0.50496,0.0,,1.6959,0.52332,,,,,1.6959,0.523294,0.0162313,5.40681,0.0049
0.14998,92051.5,3.4917,0.51246,,0.0,1.7221,0.52369,,,,,1.7221,0.523731,0.0163666,5.40681,0.0049
0.14999,92231.5,3.4947,0.51996,0.0,0.0,1.7483,0.52417,,,,,1.7483,0.52416,0.0171315,5.35499,0.0049
0.14999,92411.5,3.4976,0.52746,,2.5492,1.7745,0.52461,3.4976,0.52746,2.44193,0.41,1.7745,0.524601,0.0172133,5.35499,0.0049
0.14998,92591.5,3.5008,0.53496,0.0,,1.8007,0.52505,,,,,1.8007,0.525057,0.0175869,5.33504,0.0049
0.14998,92771.5,3.5037,0.54246,,,1.827,0.52548,,,,,1.827,0.525515,0.0173234,5.26338,0.0049
0.14998,92951.5,3.5069,0.54995,0.0,0.0,1.8533,0.52596,,,,,1.8533,0.525972,0.0182984,5.26338,0.0049
0.14998,93131.5,3.5102,0.55745,,0.0,1.8796,0.52646,3.5102,0.55745,2.47592,0.405,1.8796,0.526455,0.0178706,5.26098,0.0049
0.14998,93311.5,3.513,0.56495,0.41565,2.4277,1.9059,0.52688,,,,,1.9059,0.526921,0.017233,5.26098,0.0049
0.14998,93491.5,3.5162,0.57245,,,1.9323,0.52736,,,,,1.9323,0.527357,0.0165183,5.37483,0.0049
0.14999,93671.506,3.5188,0.57995,0.0,,1.9587,0.52778,,,,,1.9587,0.527783,0.0152654,5.59231,0.0049
0.14997,93851.5,3.5217,0.58745,,0.0,1.9851,0.52815,3.5217,0.58745,2.76078,0.364,1.9851,0.528182,0.0151316,5.59231,0.0049
0.14999,94031.5,3.5242,0.59495,0.0,,2.0115,0.52859,,,,,2.0115,0.528581,0.0141502,5.65422,0.0049
0.14999,94211.5,3.5267,0.60245,,0.0,2.0379,0.52897,,,,,2.0379,0.528963,0.0144028,5.65422,0.0049
0.14999,94391.5,3.5294,0.60995,0.0,,2.0644,0.52937,,,,,2.0644,0.529349,0.0146933,5.59002,0.0049
0.14999,94571.5,3.5319,0.61745,,0.0,2.0909,0.52975,,,,,2.0909,0.529741,0.0146439,5.59002,0.0049
0.14998,94751.5,3.5348,0.62495,0.0,0.0,2.1174,0.53015,,,,,2.1174,0.530139,0.0163136,5.48856,0.0049
0.14999,94931.5,3.5374,0.63245,,,2.1439,0.53057,,,,,2.1439,0.530577,0.0164508,5.48856,0.0049
0.14998,95111.5,3.5404,0.63995,0.0,0.0,2.1704,0.53099,,,,,2.1704,0.531029,0.0174316,5.40681,0.0049
0.14999,95291.5,3.5436,0.64745,,2.5238,2.197,0.5315,,,,,2.197,0.531475,0.0171918,5.30306,0.0049
0.14998,95471.5,3.5465,0.65494,0.0,,2.2236,0.5319,3.5465,0.65494,2.41208,0.415403,2.2236,0.531939,0.0171238,5.30306,0.0049
0.14998,95651.506,3.5497,0.66244,,,2.2502,0.53238,3.5497,0.66244,2.35984,0.42381,2.2502,0.532409,0.0185629,5.29308,0.0049
0.14999,95831.5,3.5528,0.66994,0.41383,2.4115,2.2768,0.53288,,,,,2.2768,0.532881,0.0167269,5.40452,0.0049
0.14998,96011.506,3.5558,0.67744,,,2.3035,0.5333,,,,,2.3035,0.533329,0.0161337,5.40452,0.0049
0.14999,96191.5,3.5587,0.68494,0.0,,2.3302,0.53377,,,,,2.3302,0.533737,0.0150376,5.71145,0.0049
0.14999,96371.5,3.5611,0.69244,,,2.3569,0.53413,,,,,2.3569,0.534137,0.0135879,5.71145,0.0049
0.14999,96551.5,3.5636,0.69994,,,2.3836,0.5345,,,,,2.3836,0.534486,0.0134399,6.1862,0.0049
0.14999,96731.5,3.5657,0.70744,0.0,0.0,2.4103,0.53482,3.5657,0.70744,3.51127,0.285697,2.4103,0.534806,0.0114193,6.1862,0.0049
0.14998,96911.507,3.5677,0.71494,,3.5005,2.437,0.53508,,,,,2.437,0.53512,0.0109925,6.52522,0.0049
0.14998,97091.5,3.5698,0.72244,0.0,,2.4638,0.5354,3.5698,0.72244,3.85926,0.260586,2.4638,0.535401,0.0109623,6.52522,0.0049
0.14999,97271.5,3.5716,0.72994,,0.0,2.4906,0.5357,,,,,2.4906,0.535695,0.0105026,6.52522,0.0049
0.14998,97451.508,3.5736,0.73744,0.0,,2.5174,0.53597,,,,,2.5174,0.535988,0.0103558,6.6862,0.0049
0.14999,97631.5,3.5754,0.74494,,0.0,2.5442,0.53627,,,,,2.5442,0.536256,0.0100141,6.6862,0.0049
0.14998,97811.5,3.5773,0.75244,0.0,,2.571,0.53652,,,,,2.571,0.536542,0.0110029,6.76795,0.0049
0.14998,97991.5,3.5793,0.75993,,0.0,2.5978,0.53682,,,,,2.5978,0.536835,0.010622,6.76795,0.0049
0.14999,98171.507,3.581,0.76743,,,2.6247,0.53711,,,,,2.6247,0.537133,0.0108009,6.76795,0.0049
0.14999,98351.5,3.5831,0.77493,,3.9941,2.6516,0.53743,,,,,2.6516,0.537409,0.0105636,6.91137,0.0049
0.14998,98531.508,3.5849,0.78243,0.0,,2.6784,0.53766,,,,,2.6784,0.53768,0.00893448,6.91137,0.0049
0.14998,98711.5,3.5866,0.78993,,0.0,2.7053,0.53792,,,,,2.7053,0.537958,0.0102062,6.91137,0.0049
0.14999,98891.5,3.5886,0.79743,0.0,,2.7322,0.53825,,,,,2.7322,0.538219,0.010384,7.06489,0.0049
0.15,99071.5,3.5903,0.80493,,0.0,2.7591,0.53855,3.5903,0.80493,4.34672,0.230183,2.7591,0.538516,0.0101474,7.06489,0.0049
0.14999,99251.5,3.5921,0.81243,0.0,,2.7861,0.53878,,,,,2.7861,0.538771,0.00923206,7.29992,0.0049
0.14998,99431.506,3.5937,0.81993,0.0,,2.813,0.53898,3.5937,0.81993,4.47004,0.22381,2.813,0.539003,0.00884227,7.29992,0.0049
0.14999,99611.508,3.5954,0.82743,,0.0,2.84,0.53927,,,,,2.84,0.539261,0.00980963,7.29992,0.0049
0.14999,99791.5,3.5971,0.83493,0.0,,2.8669,0.53953,,,,,2.8669,0.539506,0.00895882,7.5275,0.0049
0.14999,99971.5,3.5986,0.84243,,,2.8939,0.53975,,,,,2.8939,0.539755,0.00875809,7.5275,0.0049
0.14998,100152,3.6003,0.84993,0.0,0.0,2.9209,0.53997,,,,,2.9209,0.539987,0.00867521,7.5275,0.0049
0.14998,100332,3.6019,0.85742,,,2.9479,0.54021,3.6019,0.85742,4.79622,0.209212,2.9479,0.540223,0.00833463,7.69076,0.0049
0.14999,100511.506,3.6033,0.86492,0.0,,2.9749,0.54046,,,,,2.9749,0.540456,0.00828412,7.69076,0.0049
0.14998,100692,3.6051,0.87242,,0.0,3.002,0.54069,,,,,3.002,0.540676,0.0084978,7.69076,0.0049
0.14999,100872,3.6064,0.87992,0.0,,3.029,0.54092,,,,,3.029,0.540923,0.00883968,7.71072,0.0049
0.14999,101052,3.608,0.88742,,4.8228,3.0561,0.54116,,,,,3.0561,0.541163,0.0093349,7.71072,0.0049
0.14999,101232,3.6097,0.89492,0.0,,3.0831,0.54142,,,,,3.0831,0.54139,0.00792282,7.71072,0.0049
0.14998,101412,3.6111,0.90242,,0.0,3.1102,0.54159,,,,,3.1102,0.541611,0.00815333,7.71072,0.0049
0.14998,101592,3.6128,0.90992,0.20586,,3.1373,0.54185,,,,,3.1373,0.541823,0.00853794,7.73044,0.0049
0.14998,101772,3.6141,0.91742,,0.0,3.1644,0.54204,3.6141,0.91742,4.92372,0.203762,3.1644,0.542077,0.00873625,7.73044,0.0049
0.14999,101952,3.6157,0.92492,0.0,,3.1915,0.54232,,,,,3.1915,0.54231,0.00850427,7.73044,0.0049
0.14999,102132,3.6171,0.93242,,0.0,3.2186,0.54253,,,,,3.2186,0.542515,0.00698674,7.73055,0.0049
0.14998,102311.508,3.6187,0.93992,0.0,,3.2457,0.54273,,,,,3.2457,0.542732,0.00873764,7.73055,0.0049
0.14998,102492,3.6203,0.94742,,0.0,3.2729,0.54297,,,,,3.2729,0.542963,0.00820079,7.73055,0.0049
0.14998,102672,3.6216,0.95491,0.0,,3.3,0.54317,,,,,3.3,0.543192,0.00846761,7.80221,0.0049
0.14999,102852,3.6233,0.96241,,4.9711,3.3272,0.54346,,,,,3.3272,0.543411,0.00824532,7.80221,0.0049
0.14998,103032,3.6246,0.96991,0.0,,3.3544,0.54362,,,,,3.3544,0.543647,0.00827153,7.80221,0.0049
0.14999,103212,3.6262,0.97741,,0.0,3.3816,0.54389,3.6262,0.97741,4.93978,0.2025,3.3816,0.543867,0.00943714,7.84428,0.0049
0.14998,103391.507,3.6278,0.98491,0.0,,3.4088,0.5441,,,,,3.4088,0.544103,0.00812706,7.84428,0.0049
0.14998,103572,3.6291,0.99241,,0.0,3.436,0.54429,,,,,3.436,0.544322,0.00813802,7.84428,0.0049
0.14998,103752,3.6307,0.99991,0.0,,3.4632,0.54453,,,,,3.4632,0.544521,0.0082187,7.84428,0.0049
0.14997,103932,3.6321,1.0074,,0.0,3.4904,0.54471,,,,,3.4904,0.544757,0.00808128,7.87398,0.0049
0.14998,104112,3.6335,1.0149,0.0,,3.5177,0.54495,,,,,3.5177,0.544984,0.00844028,7.87398,0.0049
0.14998,104292,3.6352,1.0224,,0.0,3.5449,0.54521,,,,,3.5449,0.5452,0.00791772,7.87398,0.0049
0.14999,104472,3.6365,1.0299,0.0,,3.5722,0.54544,,,,,3.5722,0.54543,0.00779349,7.84428,0.0049
0.14998,104652,3.6381,1.0374,,5.0178,3.5995,0.54564,3.6381,1.0374,5,0.2,3.5995,0.545642,0.00868747,7.84428,0.0049
0.14998,104832,3.6397,1.0449,0.0,,3.6268,0.54588,,,,,3.6268,0.545882,0.00843131,7.84428,0.0049
0.14998,105012,3.641,1.0524,,0.0,3.6541,0.54608,,,,,3.6541,0.546118,0.008439,7.78237,0.0049
0.14999,105192,3.6427,1.0599,0.19882,,3.6814,0.54637,,,,,3.6814,0.546339,0.00804708,7.78237,0.0049
0.14998,105371.507,3.644,1.0674,,0.0,3.7087,0.54653,,,,,3.7087,0.546567,0.00838008,7.78237,0.0049
0.14999,105552,3.6456,1.0749,0.0,,3.736,0.5468,,,,,3.736,0.54679,0.00810984,7.65878,0.0049
0.14998,105732,3.6471,1.0824,,0.0,3.7634,0.54699,,,,,3.7634,0.547012,0.00801378,7.65878,0.0049
0.14999,105912,3.6486,1.0899,0.0,,3.7907,0.54725,,,,,3.7907,0.547236,0.00839315,7.65878,0.0049
0.14998,106092,3.6503,1.0974,,0.0,3.8181,0.54747,,,,,3.8181,0.547458,0.00816235,7.65878,0.0049
0.14999,106272,3.6517,1.1049,0.0,,3.8455,0.54772,,,,,3.8455,0.547689,0.00879377,7.59687,0.0049
0.14997,106452,3.6533,1.1124,,4.888,3.8729,0.54789,,,,,3.8729,0.547923,0.00886725,7.59687,0.0049
0.14998,106632,3.6549,1.1199,0.0,,3.9003,0.54816,,,,,3.9003,0.548164,0.008415,7.59687,0.0049
0.14998,106812,3.6563,1.1274,,0.0,3.9277,0.54837,,,,,3.9277,0.548391,0.00869771,7.54734,0.0049
0.14999,106992,3.658,1.1349,0.0,4.7855,3.9551,0.54866,3.658,1.1349,4.73648,0.211476,3.9551,0.548643,0.00926893,7.54734,0.0049
0.14999,107172,3.6595,1.1424,,,3.9826,0.54889,,,,,3.9826,0.548899,0.00836732,7.54734,0.0049
0.14998,107352,3.6613,1.1499,0.0,0.0,4.01,0.54912,,,,,4.01,0.549114,0.00873949,7.48543,0.0049
0.14999,107532,3.6628,1.1574,0.21066,4.6777,4.0375,0.54938,,,,,4.0375,0.549369,0.00934656,7.48543,0.0049
0.14999,107712,3.6644,1.1649,,,4.0649,0.54962,,,,,4.0649,0.549617,0.00964294,7.48543,0.0049
0.14999,107892,3.6661,1.1724,0.0,,4.0924,0.54988,3.6661,1.1724,4.4318,0.225714,4.0924,0.549865,0.00834125,7.342,0.0049
0.14998,108072,3.6676,1.1799,,0.0,4.1199,0.55007,,,,,4.1199,0.550108,0.00943268,7.342,0.0049
0.14999,108252,3.6695,1.1874,0.0,0.0,4.1474,0.55039,,,,,4.1474,0.550346,0.00862076,7.342,0.0049
0.14998,108432,3.671,1.1949,,,4.175,0.55058,,,,,4.175,0.550607,0.00920874,7.20832,0.0049
0.14999,108612,3.6729,1.2024,0.22207,4.4388,4.2025,0.5509,,,,,4.2025,0.55086,0.0100537,7.20832,0.0049
0.14999,108792,3.6745,1.2099,,,4.23,0.55114,,,,,4.23,0.551129,0.00930275,7.20832,0.0049
0.14999,108972,3.6762,1.2174,0.0,0.0,4.2576,0.55139,,,,,4.2576,0.55139,0.010378,7.04506,0.0049
0.14998,109152,3.6782,1.2249,,4.258,4.2852,0.55166,3.6782,1.2249,4.12251,0.242637,4.2852,0.551658,0.00973067,7.04506,0.0049
0.14998,109332,3.6798,1.2324,0.0,,4.3128,0.5519,,,,,4.3128,0.551933,0.00960778,7.04506,0.0049
0.14998,109512,3.6818,1.2399,,0.0,4.3404,0.5522,3.6818,1.2399,4.21418,0.237363,4.3404,0.55219,0.0097256,6.91137,0.0049
0.14999,109692,3.6834,1.2474,,,4.368,0.55247,,,,,4.368,0.552471,0.0101817,6.91137,0.0049
0.14999,109872,3.6853,1.2549,0.0,0.0,4.3956,0.55276,,,,,4.3956,0.552763,0.0103996,6.74811,0.0049
0.14997,110052,3.6874,1.2624,,,4.4233,0.553,,,,,4.4233,0.553034,0.00959258,6.74811,0.0049
0.14999,110232,3.6891,1.2699,0.0,0.0,4.4509,0.55333,,,,,4.4509,0.553323,0.010796,6.74811,0.0049
0.14999,110412,3.6912,1.2774,,,4.4786,0.55364,,,,,4.4786,0.553614,0.0104338,6.61443,0.0049
0.14998,110591.507,3.6932,1.2849,,3.8416,4.5063,0.55391,,,,,4.5063,0.553914,0.0105795,6.61443,0.0049
0.14999,110772,3.6951,1.2924,0.0,,4.534,0.55423,,,,,4.534,0.55422,0.011503,6.471,0.0049
0.15,110952,3.6972,1.2999,,0.0,4.5617,0.55458,,,,,4.5617,0.554527,0.0109087,6.471,0.0049
0.14999,111132,3.6992,1.3074,0.0,0.0,4.5894,0.55484,,,,,4.5894,0.554834,0.0114583,6.471,0.0049
0.14999,111312,3.7012,1.3149,,,4.6172,0.55514,,,,,4.6172,0.555159,0.0122791,6.38925,0.0049
0.14999,111492,3.7035,1.3224,,3.626,4.645,0.55549,,,,,4.645,0.555471,0.0105342,6.38925,0.0049
0.14998,111672,3.7054,1.3299,0.0,,4.6727,0.55574,,,,,4.6727,0.555762,0.0109644,6.28779,0.0049
0.14998,111852,3.7077,1.3374,,0.0,4.7005,0.55608,,,,,4.7005,0.556077,0.0124522,6.28779,0.0049
0.14999,112031.506,3.7097,1.3449,0.0,0.0,4.7284,0.55642,3.7097,1.3449,3.35046,0.299515,4.7284,0.556423,0.0115499,6.18391,0.0049
0.14998,112212,3.7121,1.3524,,,4.7562,0.55674,,,,,4.7562,0.556749,0.0129145,6.18391,0.0049
0.14999,112392,3.7144,1.3599,0.0,,4.784,0.55712,3.7144,1.3599,3.29606,0.303879,4.784,0.557101,0.0121225,6.10228,0.0049
0.14999,112572,3.7165,1.3674,,0.0,4.8119,0.55744,,,,,4.8119,0.55744,0.0121814,6.10228,0.0049
0.14999,112751.506,3.7189,1.3749,0.0,,4.8398,0.5578,,,,,4.8398,0.55777,0.0128807,6.10228,0.0049
0.14999,112932,3.7211,1.3824,,0.0,4.8677,0.55813,,,,,4.8677,0.558142,0.0123117,6.07247,0.0049
0.14999,113112,3.7235,1.3899,,3.2442,4.8956,0.55849,,,,,4.8956,0.55848,0.0127228,6.07247,0.0049
0.14999,113292,3.7259,1.3974,0.0,,4.9235,0.55885,3.7259,1.3974,3.125,0.32,4.9235,0.558824,0.0122616,6.01068,0.0049
0.14998,113472,3.7282,1.4049,,3.1686,4.9515,0.55916,,,,,4.9515,0.559179,0.012246,6.01068,0.0049
0.14998,113652,3.7307,1.4124,0.0,,4.9794,0.55953,,,,,4.9794,0.559522,0.0131558,5.95874,0.0049
0.14999,113831.507,3.733,1.4199,0.31825,3.1263,5.0074,0.55991,,,,,5.0074,0.559888,0.0126714,5.95874,0.0049
0.14998,114012,3.7354,1.4274,,,5.0354,0.56024,,,,,5.0354,0.560255,0.0138364,5.91907,0.0049
0.14999,114192,3.738,1.4349,0.0,3.074,5.0634,0.56066,3.738,1.4349,3.04878,0.328,5.0634,0.560632,0.0128965,5.91907,0.0049
0.14998,114372,3.7403,1.4424,,,5.0915,0.56097,,,,,5.0915,0.561,0.0128722,5.86713,0.0049
0.14999,114552,3.7429,1.4499,0.32563,3.0406,5.1195,0.5614,,,,,5.1195,0.561359,0.0141572,5.86713,0.0049
0.14998,114732,3.7453,1.4574,,,5.1476,0.56172,,,,,5.1476,0.561741,0.012338,5.80534,0.0049
0.14997,114912,3.7477,1.4649,0.0,0.0,5.1757,0.56204,,,,,5.1757,0.562105,0.013247,5.80534,0.0049
0.14999,115092,3.7504,1.4724,,0.0,5.2038,0.56252,3.7504,1.4724,3.03854,0.329111,5.2038,0.562468,0.013573,5.77553,0.0049
0.14999,115271.508,3.7527,1.4799,0.33159,2.9807,5.232,0.56287,,,,,5.232,0.562871,0.0131337,5.77553,0.0049
0.14999,115451.506,3.7554,1.4874,,,5.2601,0.56327,,,,,5.2601,0.563234,0.0133326,5.7534,0.0049
0.14998,115632,3.7578,1.4949,0.0,,5.2883,0.56359,3.7578,1.4949,2.97957,0.336,5.2883,0.563598,0.0124361,5.7534,0.0049
0.14998,115811.506,3.7602,1.5024,,0.0,5.3165,0.56395,,,,,5.3165,0.563976,0.0138893,5.80534,0.0049
0.14998,115992,3.7629,1.5099,0.33368,,5.3447,0.56436,,,,,5.3447,0.56435,0.0129247,5.80534,0.0049
0.14998,116172,3.7652,1.5174,,0.0,5.3729,0.5647,,,,,5.3729,0.564727,0.0125006,5.88926,0.0049
0.14998,116352,3.7679,1.5249,0.0,,5.4012,0.56511,,,,,5.4012,0.565085,0.0131097,5.88926,0.0049
0.14998,116532,3.7703,1.5324,,0.0,5.4294,0.56547,3.7703,1.5324,3.01292,0.332,5.4294,0.565461,0.0129197,5.85727,0.0049
0.14998,116712,3.7728,1.5399,0.3329,,5.4577,0.56584,,,,,5.4577,0.565854,0.0142638,5.85727,0.0049
0.14999,116891.507,3.7754,1.5474,,0.0,5.486,0.56627,,,,,5.486,0.566221,0.0131689,5.8152,0.0049
0.14997,117072,3.7777,1.5549,0.0,,5.5143,0.56654,3.7777,1.5549,3.00649,0.332667,5.5143,0.566598,0.0126909,5.8152,0.0049
0.14998,117252,3.7803,1.5624,,0.0,5.5427,0.56697,,,,,5.5427,0.566976,0.0138061,5.80534,0.0049
0.14998,117432,3.7828,1.5699,0.33167,,5.571,0.56734,,,,,5.571,0.567338,0.0125327,5.86713,0.0049
0.14998,117612,3.7851,1.5774,,0.0,5.5994,0.56769,,,,,5.5994,0.56771,0.0124193,5.86713,0.0049
0.14997,117792,3.7877,1.5848,0.0,,5.6278,0.56804,,,,,5.6278,0.568067,0.0134818,5.89923,0.0049
0.14999,117972,3.79,1.5923,,0.0,5.6562,0.56846,3.79,1.5923,3.01292,0.332,5.6562,0.568458,0.0135983,5.89923,0.0049
0.14998,118152,3.7926,1.5998,0.32918,,5.6846,0.56881,,,,,5.6846,0.568836,0.0133603,5.86713,0.0049
0.14998,118332,3.7952,1.6073,,0.0,5.7131,0.5692,,,,,5.7131,0.569205,0.0129322,5.86713,0.0049
0.14998,118512,3.7975,1.6148,0.0,,5.7416,0.56955,,,,,5.7416,0.569583,0.0133076,5.80534,0.0049
0.14998,118692,3.8001,1.6223,,0.0,5.77,0.56994,,,,,5.77,0.56994,0.0127115,5.80534,0.0049
0.14998,118872,3.8025,1.6298,0.33151,,5.7986,0.5703,,,,,5.7986,0.570312,0.0132916,5.77553,0.0049
0.14998,119052,3.8052,1.6373,,0.0,5.8271,0.5707,,,,,5.8271,0.570692,0.0139701,5.77553,0.0049
0.14998,119232,3.8075,1.6448,0.0,,5.8556,0.57105,,,,,5.8556,0.571079,0.0126856,5.6939,0.0049
0.14997,119412,3.8101,1.6523,,0.0,5.8842,0.5714,3.8101,1.6523,2.83665,0.352889,5.8842,0.571451,0.0133554,5.6939,0.0049
0.14998,119592,3.8129,1.6598,0.33944,,5.9128,0.57186,,,,,5.9128,0.571826,0.0132271,5.59002,0.0049
0.14998,119772,3.8153,1.6673,,0.0,5.9414,0.57222,,,,,5.9414,0.572234,0.014041,5.59002,0.0049
0.14999,119952,3.8182,1.6748,0.0,2.8457,5.97,0.57269,3.8182,1.6748,2.77778,0.36,5.97,0.572646,0.0151969,5.50839,0.0049
0.14999,120132,3.8207,1.6823,,,5.9986,0.57307,,,,,5.9986,0.573065,0.0138079,5.50839,0.0049
0.14998,120312,3.8235,1.6898,,2.742,6.0273,0.57345,,,,,6.0273,0.573461,0.0142737,5.47858,0.0049
0.14998,120491.508,3.8265,1.6973,0.0,,6.056,0.5739,3.8265,1.6973,2.6074,0.383778,6.056,0.573877,0.0155324,5.47858,0.0049
0.14998,120672,3.8293,1.7048,,,6.0847,0.57432,,,,,6.0847,0.574354,0.0163364,5.37711,0.0049
0.14998,120852,3.8325,1.7123,0.39314,0.0,6.1134,0.5748,,,,,6.1134,0.574818,0.0167128,5.20147,0.0049
0.14999,121032,3.8357,1.7198,,0.0,6.1422,0.57532,,,,,6.1422,0.575285,0.0164178,5.20147,0.0049
0.14998,121212,3.8389,1.7273,0.0,2.2917,6.1709,0.57576,,,,,6.1709,0.575802,0.0185711,4.98628,0.0049
0.14999,121392,3.8427,1.7348,0.44874,,6.1997,0.57637,,,,,6.1997,0.576347,0.0192143,4.85259,0.0049
0.14999,121572,3.8462,1.7423,,0.0,6.2286,0.57689,3.8462,1.7423,1.99117,0.50619,6.2286,0.576906,0.0193315,4.85259,0.0049
0.15,121752,3.8502,1.7498,0.0,,6.2574,0.57753,3.8502,1.7498,1.92561,0.52,6.2574,0.577484,0.0200516,4.78094,0.0049
0.14999,121932,3.854,1.7573,,1.9436,6.2863,0.57806,3.854,1.7573,1.97368,0.506667,6.2863,0.578044,0.0189451,4.85259,0.0049
0.14998,122112,3.8578,1.7648,0.0,,6.3152,0.57859,3.8578,1.7648,2.00071,0.5,6.3152,0.578609,0.0198381,4.98628,0.0049
0.14998,122292,3.8615,1.7723,,0.0,6.3442,0.57915,3.8615,1.7723,2.22246,0.457619,6.3442,0.579155,0.0179533,5.24114,0.0049
0.14999,122472,3.8646,1.7798,0.0,,6.3732,0.57965,,,,,6.3732,0.579643,0.0153111,5.24114,0.0049
0.14998,122652,3.8677,1.7873,,0.0,6.4021,0.58008,,,,,6.4021,0.580078,0.0149806,5.58017,0.0049
0.14999,122832,3.8704,1.7948,0.0,0.0,6.4312,0.58052,3.8704,1.7948,2.91667,0.348444,6.4312,0.580493,0.0132656,5.58017,0.0049
0.14999,123012,3.8728,1.8023,0.38045,,6.4602,0.58088,,,,,6.4602,0.580878,0.0129875,6.0007,0.0049
0.14999,123191.506,3.8753,1.8098,,0.0,6.4892,0.58126,,,,,6.4892,0.581232,0.0118907,6.0007,0.0049
0.14999,123372,3.8774,1.8173,0.0,,6.5183,0.58157,,,,,6.5183,0.581556,0.0102889,6.35956,0.0049
0.14998,123552,3.8796,1.8248,,0.0,6.5474,0.58186,,,,,6.5474,0.581862,0.0111395,6.35956,0.0049
0.14999,123732,3.8815,1.8323,0.0,,6.5765,0.58219,,,,,6.5765,0.582167,0.00975056,6.6862,0.0049
0.14998,123912,3.8833,1.8398,,3.7282,6.6056,0.58242,,,,,6.6056,0.582445,0.00914858,6.6862,0.0049
0.14998,124092,3.8854,1.8473,0.0,,6.6347,0.58273,,,,,6.6347,0.582718,0.00997783,6.6862,0.0049
0.14999,124271.506,3.8871,1.8548,,0.0,6.6639,0.58303,,,,,6.6639,0.583027,0.00997405,6.93361,0.0049
0.14999,124452,3.8891,1.8623,0.0,,6.6931,0.58333,,,,,6.6931,0.583308,0.00950328,6.93361,0.0049
0.14998,124632,3.8908,1.8698,,0.0,6.7222,0.58354,,,,,6.7222,0.583553,0.00778963,7.11671,0.0049
0.14997,124812,3.8925,1.8773,0.24424,,6.7514,0.58376,,,,,6.7514,0.583801,0.0086187,7.11671,0.0049
0.14998,124992,3.8943,1.8848,,0.0,6.7806,0.58407,3.8943,1.8848,4.39693,0.228571,6.7806,0.584046,0.00892269,7.11671,0.0049
0.14999,125171.507,3.8959,1.8923,0.0,,6.8098,0.58435,,,,,6.8098,0.584331,0.00844004,7.24811,0.0049
0.14999,125352,3.8977,1.8998,,0.0,6.839,0.58462,,,,,6.839,0.584577,0.00890035,7.24811,0.0049
0.14999,125532,3.8993,1.9073,0.0,0.0,6.8683,0.58486,,,,,6.8683,0.58482,0.00771787,7.24811,0.0049
0.14998,125711.507,3.9008,1.9148,,,6.8975,0.58504,,,,,6.8975,0.585066,0.00881171,7.48543,0.0049
0.14998,125892,3.9026,1.9223,0.22101,0.0,6.9268,0.58531,,,,,6.9268,0.585291,0.0078155,7.48543,0.0049
0.14998,126072,3.9039,1.9298,,0.0,6.956,0.58551,,,,,6.956,0.585548,0.00905473,7.48543,0.0049
0.15,126251.507,3.9057,1.9373,0.0,,6.9853,0.58586,,,,,6.9853,0.585791,0.00814526,7.66107,0.0049
0.14998,126432,3.9071,1.9448,,0.0,7.0146,0.58599,,,,,7.0146,0.586016,0.0066296,7.66107,0.0049
0.14998,126612,3.9088,1.9523,0.0,,7.0439,0.58624,,,,,7.0439,0.586212,0.00799856,7.66107,0.0049
0.14997,126792,3.9102,1.9598,,0.0,7.0732,0.58641,3.9102,1.9598,4.8596,0.206095,7.0732,0.586447,0.00778342,7.70074,0.0049
0.14998,126972,3.9117,1.9673,0.0,,7.1026,0.58668,,,,,7.1026,0.586684,0.00809072,7.70074,0.0049
0.14998,127152,3.9134,1.9748,,4.8914,7.1319,0.58693,,,,,7.1319,0.586918,0.0077708,7.70074,0.0049
0.14999,127332,3.9148,1.9823,0.0,,7.1613,0.58718,,,,,7.1613,0.58717,0.0081811,7.70074,0.0049
0.14998,127512,3.9165,1.9898,,0.0,7.1906,0.5874,,,,,7.1906,0.587387,0.00705247,7.60913,0.0049
0.14998,127692,3.9178,1.9973,0.0,,7.22,0.58759,3.9178,1.9973,4.90132,0.205,7.22,0.587618,0.00778745,7.60913,0.0049
0.14999,127872,3.9194,2.0048,,0.0,7.2494,0.58787,,,,,7.2494,0.587866,0.00859141,7.60913,0.0049
0.14998,128052,3.9212,2.0123,0.0,,7.2788,0.5881,,,,,7.2788,0.588089,0.00687527,7.42363,0.0049
0.14998,128232,3.9226,2.0198,0.20741,0.0,7.3082,0.58831,,,,,7.3082,0.588336,0.00932996,7.42363,0.0049
0.14999,128412,3.9244,2.0273,,0.0,7.3376,0.58862,,,,,7.3376,0.588588,0.00823224,7.42363,0.0049
0.14998,128592,3.9259,2.0348,0.0,,7.3671,0.58881,3.9259,2.0348,4.39693,0.228571,7.3671,0.588843,0.00767038,7.19846,0.0049
0.14999,128772,3.9277,2.0423,,0.0,7.3965,0.58912,,,,,7.3965,0.589079,0.010304,7.19846,0.0049
0.14999,128952,3.9295,2.0498,0.0,0.0,7.426,0.58939,,,,,7.426,0.589362,0.00810224,7.19846,0.0049
0.14997,129132,3.931,2.0573,,,7.4554,0.58953,,,,,7.4554,0.589609,0.00862956,6.96331,0.0049
0.14998,129312,3.9331,2.0648,0.22743,4.2447,7.4849,0.58989,,,,,7.4849,0.589851,0.00988782,6.96331,0.0049
0.14998,129492,3.9348,2.0723,,,7.5144,0.59014,,,,,7.5144,0.59016,0.00983358,6.69617,0.0049
0.14999,129672,3.9366,2.0798,0.0,,7.5439,0.59045,,,,,7.5439,0.590456,0.00974874,6.69617,0.0049
0.14998,129852,3.9388,2.0873,,,7.5735,0.59074,,,,,7.5735,0.590719,0.00910806,6.69617,0.0049
0.14998,130032,3.9406,2.0948,0.0,0.0,7.603,0.59101,,,,,7.603,0.591014,0.010042,6.5007,0.0049
0.14998,130212,3.9427,2.1023,0.25741,0.0,7.6326,0.59133,,,,,7.6326,0.591318,0.0116278,6.5007,0.0049
0.14998,130392,3.9449,2.1098,,0.0,7.6621,0.59166,,,,,7.6621,0.591652,0.0111903,6.35956,0.0049
0.14998,130572,3.9468,2.1173,0.0,,7.6917,0.59194,,,,,7.6917,0.59198,0.0111984,6.35956,0.0049
0.14998,130752,3.9492,2.1248,,,7.7213,0.5923,,,,,7.7213,0.5923,0.0112027,6.35956,0.0049
0.14998,130932,3.9513,2.1323,0.0,0.0,7.751,0.59262,,,,,7.751,0.592641,0.0110183,6.1862,0.0049
0.14998,131112,3.9537,2.1398,,3.3218,7.7806,0.59298,,,,,7.7806,0.592972,0.0113336,6.1862,0.0049
0.14998,131292,3.9562,2.1473,0.0,,7.8103,0.59335,,,,,7.8103,0.593338,0.0122272,5.89695,0.0049
0.14999,131472,3.9585,2.1548,,3.1416,7.8399,0.59374,,,,,7.8399,0.593716,0.0125803,5.89695,0.0049
0.14998,131652,3.9611,2.1623,0.0,,7.8696,0.59409,,,,,7.8696,0.594075,0.0123543,5.68163,0.0049
0.14998,131832,3.9635,2.1698,,3.0046,7.8993,0.59445,,,,,7.8993,0.594463,0.0122197,5.68163,0.0049
0.14998,132012,3.966,2.1773,0.0,,7.9291,0.59482,3.966,2.1773,2.79527,0.360444,7.9291,0.594846,0.0136976,5.57019,0.0049
0.14999,132192,3.9689,2.1848,,2.8783,7.9588,0.5953,,,,,7.9588,0.595236,0.0126042,5.57019,0.0049
0.14998,132372,3.9714,2.1923,0.0,,7.9886,0.59563,,,,,7.9886,0.59565,0.0138918,5.50839,0.0049
0.14999,132552,3.9743,2.1998,,,8.0184,0.59611,3.9743,2.1998,2.69851,0.371111,8.0184,0.596056,0.0144098,5.47858,0.0049
0.14997,132731.508,3.977,2.2073,0.0,0.0,8.0482,0.59643,,,,,8.0482,0.596495,0.0142109,5.47858,0.0049
0.14999,132912,3.9799,2.2148,,,8.078,0.59695,,,,,8.078,0.59693,0.0153682,5.41679,0.0049
0.14999,133092,3.9829,2.2223,0.37877,0.0,8.1079,0.5974,,,,,8.1079,0.597355,0.0140521,5.41679,0.0049
0.14998,133272,3.9856,2.2298,,0.0,8.1378,0.59776,3.9856,2.2298,2.45066,0.41,8.1378,0.597805,0.0157901,5.36485,0.0049
0.14998,133452,3.9888,2.2373,0.0,2.5232,8.1677,0.59824,,,,,8.1677,0.59826,0.0152611,5.32518,0.0049
0.14998,133632,3.9918,2.2448,,,8.1976,0.59869,,,,,8.1976,0.598709,0.0144254,5.32518,0.0049
0.14999,133812,3.995,2.2523,0.0,,8.2276,0.59921,,,,,8.2276,0.599164,0.0162456,5.27324,0.0049
0.14999,133992,3.9979,2.2598,,0.0,8.2575,0.59965,3.9979,2.2598,2.46989,0.405,8.2575,0.599639,0.0152424,5.27324,0.0049
0.14998,134171.508,4.001,2.2673,0.0,0.0,8.2875,0.60007,,,,,8.2875,0.600096,0.0155291,5.21145,0.0049
0.14998,134351.506,4.0043,2.2748,,,8.3175,0.60056,,,,,8.3175,0.600538,0.0151014,5.20147,0.0049
0.14998,134532,4.0073,2.2823,0.0,0.0,8.3476,0.60101,,,,,8.3476,0.601026,0.0161503,5.20147,0.0049
0.14999,134712,4.0107,2.2898,,0.0,8.3776,0.60156,,,,,8.3776,0.601524,0.016917,5.19161,0.0049
0.14999,134892,4.0138,2.2973,,2.3888,8.4077,0.60203,4.0138,2.2973,2.44193,0.41,8.4077,0.601995,0.0146094,5.20147,0.0049
0.14998,135072,4.0168,2.3048,0.0,,8.4378,0.60244,,,,,8.4378,0.602459,0.0163115,5.20147,0.0049
0.14999,135252,4.0201,2.3123,,,8.468,0.60297,,,,,8.468,0.602937,0.0165803,5.21145,0.0049
0.14998,135432,4.023,2.3198,0.41813,2.4048,8.4981,0.60337,,,,,8.4981,0.603416,0.0149744,5.27324,0.0049
0.14998,135612,4.0262,2.3273,,,8.5283,0.60385,4.0262,2.3273,2.41034,0.415,8.5283,0.603851,0.0152288,5.27324,0.0049
0.14999,135792,4.0291,2.3348,0.0,,8.5585,0.60432,,,,,8.5585,0.604309,0.014211,5.32518,0.0049
0.14998,135972,4.0323,2.3423,,0.0,8.5887,0.60476,,,,,8.5887,0.604755,0.015374,5.32518,0.0049
0.14999,136152,4.0353,2.3498,0.0,0.0,8.619,0.60525,,,,,8.619,0.605213,0.0149576,5.36485,0.0049
0.14999,136332,4.038,2.3573,,2.5423,8.6493,0.60566,4.038,2.3573,2.53246,0.395,8.6493,0.605658,0.014196,5.43662,0.0049
0.14998,136512,4.0411,2.3648,0.0,,8.6796,0.60608,,,,,8.6796,0.606075,0.0138648,5.43662,0.0049
0.14998,136692,4.0438,2.3723,,2.6088,8.7099,0.60649,,,,,8.7099,0.606503,0.0139456,5.55035,0.0049
0.14998,136872,4.0467,2.3798,0.0,,8.7402,0.60692,,,,,8.7402,0.606914,0.0138372,5.55035,0.0049
0.14998,137052,4.0493,2.3873,,,8.7706,0.60731,,,,,8.7706,0.60734,0.013874,5.62212,0.0049
0.14999,137232,4.0519,2.3948,0.0,0.0,8.8009,0.60774,,,,,8.8009,0.607766,0.0134199,5.62212,0.0049
0.14998,137412,4.0548,2.4023,0.0,,8.8313,0.60814,,,,,8.8313,0.608141,0.0116539,5.68163,0.0049
0.14998,137592,4.0571,2.4098,,0.0,8.8618,0.60848,,,,,8.8618,0.608502,0.0111917,5.68163,0.0049
0.14999,137771.506,4.0597,2.4173,0.0,,8.8922,0.60891,,,,,8.8922,0.608878,0.0132874,5.84501,0.0049
0.14999,137952,4.0622,2.4248,,0.0,8.9226,0.60929,4.0622,2.4248,3.20935,0.312,8.9226,0.609247,0.0114981,6.20375,0.0049
0.14998,138132,4.0643,2.4323,0.0,,8.9531,0.60956,,,,,8.9531,0.609607,0.0110046,6.20375,0.0049
0.14999,138311.506,4.0668,2.4398,,0.0,8.9836,0.60998,,,,,8.9836,0.60992,0.0112311,6.20375,0.0049
0.14998,138492,4.0688,2.4472,0.0,,9.0141,0.61024,,,,,9.0141,0.610251,0.0105638,6.77552,0.0049
0.14999,138671.507,4.0707,2.4547,,0.0,9.0446,0.61056,,,,,9.0446,0.610571,0.0102553,6.77552,0.0049
0.14997,138852,4.0729,2.4622,0.28463,0.0,9.0752,0.61081,,,,,9.0752,0.610838,0.00811562,7.58701,0.0049
0.14997,139032,4.0745,2.4697,,0.0,9.1057,0.61105,,,,,9.1057,0.61109,0.00809909,7.58701,0.0049
0.14997,139211.508,4.0762,2.4772,0.0,,9.1363,0.61131,,,,,9.1363,0.611352,0.0085173,7.58701,0.0049
0.15,139392,4.0776,2.4847,,0.0,9.1668,0.61164,,,,,9.1668,0.611595,0.00603754,7.97426,0.0049
0.14998,139572,4.0789,2.4922,0.0,,9.1974,0.61175,,,,,9.1974,0.611792,0.00602975,7.97426,0.0049
0.15,139752,4.0802,2.4997,,0.0,9.228,0.61203,,,,,9.228,0.611969,0.00593949,7.97426,0.0049
0.14998,139932,4.0811,2.5072,0.0,,9.2586,0.61208,,,,,9.2586,0.612132,0.00364276,7.97426,0.0049
0.14999,140112,4.0821,2.5147,,0.0,9.2892,0.61227,4.0821,2.5147,8.84816,0.119913,9.2892,0.612251,0.00455003,6.90525,0.0049
0.14999,140292,4.0829,2.5222,,,9.3198,0.61239,,,,,9.3198,0.612351,0.00361297,6.90525,0.0049
0.14999,140472,4.0835,2.5297,0.0,,9.3505,0.61248,,,,,9.3505,0.612479,0.00396156,6.90525,0.0049
0.14998,140651.506,4.0844,2.5372,,0.0,9.3811,0.61258,,,,,9.3811,0.612585,0.00270351,6.90525,0.0049
0.14998,140712,4.0846,2.5397,0.0,,9.3913,0.61261,4.0846,2.5397,10,0.0800866,9.3913,0.612609,0.00238585,6.90525,0.0049