File: Data/processed_data/Cycle 520_charge.csv
Current(A),Test_Time(s),Voltage(V),Charge_Capacity(Ah),dV/dQ(V/Ah),dQ/dV(Ah/V),Charge_Energy(Wh),Power(W),Downsampled Voltage (V),Downsampled Capacity (Ah),dQ/dV from downsampled Voltage (Ah/V),dV/dQ from downsampled Cpacity (V/Ah),Downsampled Energy (Wh),Downsampled Power (W),dP/dE from downsampled Energy (W/Wh),dQ/dV from LEAN (Ah/V),Delta_V (V) in LEAN
0.14999,977.665,4.2037,0.0292,-5.0442,-0.13021,0.12334,0.63051,4.2037,0.0292,-0.000707315,-1754.37,0.12334,0.594992,2.24935,,0.0049
0.14997,77294.422,3.0981,0.03249,4.534,0.22082,0.09764,0.46462,3.0981,0.03249,0.226476,4.42,0.09764,0.474128,-4.37802,3.00917,0.0049
0.14998,77474.422,3.1294,0.03999,4.0237,0.25024,0.12099,0.46935,3.1294,0.03999,0.252206,3.96765,0.12099,0.455136,1.47435,3.00917,0.0049
0.14998,77654.422,3.1572,0.04748,,0.27465,0.14456,0.47352,3.1572,0.04748,0.284091,3.52,0.14456,0.473548,0.167726,3.11773,0.0049
0.14998,77834.423,3.1827,0.05498,3.3436,0.30273,0.16832,0.47734,3.1827,0.05498,0.312891,3.2,0.16832,0.477331,0.152102,3.18623,0.0049
0.14999,78014.422,3.2056,0.06248,,0.33462,0.19227,0.48081,3.2056,0.06248,0.335601,2.98,0.19227,0.48081,0.13759,3.13666,0.0049
0.14998,78194.422,3.2269,0.06997,,0.36392,0.21638,0.48397,3.2269,0.06997,0.379484,2.64,0.21638,0.483983,0.125723,3.31372,0.0049
0.14999,78374.422,3.2462,0.07747,,0.39787,0.24065,0.4869,3.2462,0.07747,0.400461,2.5,0.24065,0.486868,0.114141,3.24521,0.0049
0.14998,78554.422,3.264,0.08497,,0.42737,0.26505,0.48953,3.264,0.08497,0.434848,2.3,0.26505,0.489557,0.105755,3.26415,0.0049
0.14997,78734.422,3.281,0.09246,2.2381,0.45168,0.28959,0.49205,3.281,0.09246,0.472169,2.12459,0.28959,0.492054,0.099223,3.31372,0.0049
0.14997,78914.422,3.2966,0.09996,,0.47925,0.31425,0.49439,3.2966,0.09996,0.480769,2.08,0.31425,0.494412,0.0921524,3.31372,0.0049
0.14998,79094.423,3.3114,0.10746,1.993,0.50972,0.33902,0.49664,3.3114,0.10746,0.531915,1.88,0.33902,0.49665,0.0877178,3.38222,0.0049
0.14999,79274.422,3.3255,0.11496,,0.54306,0.36389,0.49879,3.3255,0.11496,0.549472,1.82342,0.36389,0.498736,0.081306,3.40116,0.0049
0.14998,79454.423,3.3384,0.12245,1.7439,0.58211,0.38887,0.50069,3.3384,0.12245,0.588398,1.7,0.38887,0.500714,0.0755219,3.40116,0.0049
0.14998,79634.422,3.3507,0.12995,1.647,0.61914,0.41395,0.50254,3.3507,0.12995,0.658807,1.52,0.41395,0.502545,0.0707693,3.46966,0.0049
0.14999,79814.423,3.3618,0.13745,,,0.43911,0.50424,3.3618,0.13745,0.715453,1.4,0.43911,0.504199,0.0612634,3.72463,0.0049
0.14998,79994.423,3.3712,0.14494,,,0.46435,0.50561,3.3712,0.14494,0.896673,1.12086,0.46435,0.505637,0.0503515,3.80989,0.0049
0.14998,80174.422,3.3788,0.15244,1.0741,1.0188,0.48966,0.50675,3.3788,0.15244,1.18677,0.87,0.48966,0.506745,0.0389739,3.98695,0.0049
0.14998,80354.422,3.3845,0.15994,,1.2362,0.51501,0.50761,,,,,0.51501,0.507612,0.0298373,4.27038,0.0049
0.14998,80534.422,3.389,0.16743,,1.5258,0.5404,0.50828,,,,,0.5404,0.508319,0.0260442,4.60338,0.0049
0.14999,80714.423,3.3931,0.17493,0.0,,0.56583,0.50893,,,,,0.56583,0.508896,0.0206904,4.94579,0.0049
0.14997,80894.422,3.3964,0.18243,0.0,0.0,0.59128,0.50936,,,,,0.59128,0.509409,0.0184517,5.23874,0.0049
0.14998,81074.423,3.3996,0.18993,,,0.61675,0.50987,,,,,0.61675,0.509863,0.0177428,5.23874,0.0049
0.14998,81254.422,3.4025,0.19742,0.0,0.0,0.64225,0.51031,3.4025,0.19742,2.81866,0.361267,0.64225,0.510291,0.0153202,5.53158,0.0049
0.14999,81434.423,3.405,0.20492,,0.0,0.66777,0.51072,,,,,0.66777,0.510704,0.0156295,5.8056,0.0049
0.14999,81614.423,3.4077,0.21242,0.0,,0.6933,0.51112,,,,,0.6933,0.511079,0.014442,5.8056,0.0049
0.14998,81794.423,3.41,0.21991,0.0,0.0,0.71886,0.51143,3.41,0.21991,3.09375,0.324139,0.71886,0.511448,0.0143868,6.07951,0.0049
0.14999,81974.422,3.4124,0.22741,,,0.74443,0.51183,,,,,0.74443,0.511813,0.0145093,6.07951,0.0049
0.14998,82154.422,3.4148,0.23491,0.0,0.0,0.77002,0.51215,,,,,0.77002,0.512157,0.012207,6.28502,0.0049
0.14998,82334.423,3.4168,0.2424,,,0.79562,0.51245,,,,,0.79562,0.512484,0.0135708,6.28502,0.0049
0.14999,82514.422,3.4192,0.2499,,,0.82125,0.51285,,,,,0.82125,0.512818,0.0125811,6.28502,0.0049
0.14998,82694.422,3.4211,0.25739,0.0,0.0,0.84689,0.5131,,,,,0.84689,0.513136,0.0119754,6.45038,0.0049
0.14998,82874.422,3.4233,0.26489,,3.5647,0.87254,0.51343,,,,,0.87254,0.513439,0.0119492,6.45038,0.0049
0.14998,83054.423,3.4252,0.27239,0.0,,0.89821,0.51371,,,,,0.89821,0.513743,0.0111989,6.58739,0.0049
0.14999,83234.422,3.4272,0.27988,,0.0,0.92389,0.51405,,,,,0.92389,0.514027,0.0112872,6.58739,0.0049
0.14999,83414.422,3.4291,0.28738,0.0,,0.94959,0.51433,,,,,0.94959,0.514328,0.0114469,6.58739,0.0049
0.14998,83594.422,3.4313,0.29488,,0.0,0.97531,0.51463,,,,,0.97531,0.514616,0.0113776,6.69594,0.0049
0.14998,83774.423,3.433,0.30237,0.0,3.8475,1.001,0.51488,,,,,1.001,0.514903,0.0114636,6.69594,0.0049
0.14999,83954.422,3.4349,0.30987,,,1.0268,0.5152,,,,,1.0268,0.515209,0.0121836,6.69594,0.0049
0.14998,84134.422,3.4371,0.31737,0.0,,1.0525,0.5155,,,,,1.0525,0.5155,0.0113183,6.69594,0.0049
0.14999,84314.423,3.4388,0.32486,,,1.0783,0.51579,,,,,1.0783,0.515791,0.0103364,6.69594,0.0049
0.14998,84494.422,3.441,0.33236,0.0,0.0,1.1041,0.51608,,,,,1.1041,0.516067,0.011365,6.58739,0.0049
0.14998,84674.422,3.443,0.33986,,,1.1299,0.51638,,,,,1.1299,0.516351,0.0112972,6.58739,0.0049
0.14998,84854.422,3.4448,0.34735,0.0,0.0,1.1557,0.51665,,,,,1.1557,0.516667,0.0123109,6.45038,0.0049
0.14998,85034.422,3.447,0.35485,,,1.1815,0.51698,,,,,1.1815,0.516983,0.0119722,6.45038,0.0049
0.14998,85214.423,3.4489,0.36234,,,1.2074,0.51727,,,,,1.2074,0.517303,0.0114992,6.30396,0.0049
0.14999,85394.422,3.4512,0.36984,0.0,0.0,1.2333,0.51765,,,,,1.2333,0.517604,0.0122617,6.30396,0.0049
0.14999,85574.423,3.4532,0.37734,,3.5174,1.2591,0.51795,,,,,1.2591,0.517933,0.0113413,6.30396,0.0049
0.14998,85754.422,3.4554,0.38483,0.0,,1.285,0.51824,,,,,1.285,0.518244,0.0133707,6.14801,0.0049
0.14998,85934.422,3.4579,0.39233,0.29034,0.0,1.3109,0.51862,3.4579,0.39233,3.24652,0.30812,1.3109,0.518581,0.0134209,6.14801,0.0049
0.14997,86114.422,3.46,0.39983,,0.0,1.3369,0.5189,,,,,1.3369,0.518953,0.0138579,5.95202,0.0049
0.14998,86294.422,3.4626,0.40733,0.0,,1.3628,0.51932,,,,,1.3628,0.519293,0.0142794,5.95202,0.0049
0.14998,86474.423,3.4649,0.41482,,0.0,1.3888,0.51967,,,,,1.3888,0.519684,0.0143826,5.75603,0.0049
0.14998,86654.422,3.4676,0.42232,0.0,,1.4148,0.52007,,,,,1.4148,0.520074,0.0160223,5.75603,0.0049
0.14998,86834.423,3.4702,0.42982,0.0,0.0,1.4408,0.52046,3.4702,0.42982,2.87793,0.34753,1.4408,0.520471,0.0147737,5.60009,0.0049
0.14998,87014.423,3.4728,0.43731,,,1.4668,0.52085,,,,,1.4668,0.520873,0.0150015,5.60009,0.0049
0.14997,87194.422,3.4758,0.44481,0.0,0.0,1.4929,0.52127,,,,,1.4929,0.521264,0.0159647,5.4726,0.0049
0.14998,87374.422,3.4785,0.45231,0.36451,2.6862,1.5189,0.52171,3.4785,0.45231,2.58065,0.387552,1.5189,0.521711,0.0169453,5.38516,0.0049
0.14998,87554.422,3.4816,0.4598,,,1.545,0.52217,,,,,1.545,0.522159,0.0169935,5.38516,0.0049
0.14998,87734.422,3.4845,0.4673,0.0,,1.5711,0.52261,,,,,1.5711,0.522599,0.0167203,5.31666,0.0049
0.14999,87914.422,3.4874,0.4748,,0.0,1.5973,0.52308,,,,,1.5973,0.523059,0.0176647,5.31666,0.0049
0.14998,88094.423,3.4906,0.4823,0.0,0.0,1.6234,0.52352,,,,,1.6234,0.523505,0.0171489,5.27661,0.0049
0.14998,88274.422,3.4935,0.48979,,2.4614,1.6496,0.52396,3.4935,0.48979,2.49875,0.4002,1.6496,0.523963,0.0172012,5.33559,0.0049
0.14998,88454.423,3.4966,0.49729,0.0,,1.6758,0.52442,,,,,1.6758,0.524414,0.0180934,5.33559,0.0049
0.14998,88634.422,3.4996,0.50479,,,1.702,0.52487,,,,,1.702,0.52488,0.0172129,5.4158,0.0049
0.14998,88814.422,3.5026,0.51228,0.0,0.0,1.7283,0.52532,,,,,1.7283,0.525342,0.0179425,5.4158,0.0049
0.14998,88994.422,3.5058,0.51978,,0.0,1.7545,0.5258,3.5058,0.51978,2.46989,0.405,1.7545,0.52579,0.0173179,5.42521,0.0049
0.14998,89174.422,3.5087,0.52728,,2.4583,1.7808,0.52623,,,,,1.7808,0.526258,0.0165483,5.34511,0.0049
0.14998,89354.422,3.5118,0.53477,0.0,,1.8072,0.5267,,,,,1.8072,0.526708,0.0178572,5.34511,0.0049
0.14999,89534.422,3.5149,0.54227,,,1.8335,0.5272,,,,,1.8335,0.527151,0.0167249,5.31666,0.0049
0.14998,89714.423,3.5178,0.54977,0.40262,0.0,1.8599,0.5276,3.5178,0.54977,2.49875,0.4002,1.8599,0.52761,0.0165263,5.29772,0.0049
0.14997,89894.422,3.5209,0.55727,,0.0,1.8862,0.52803,,,,,1.8862,0.528054,0.0184136,5.29772,0.0049
0.14998,90074.423,3.524,0.56476,0.0,2.4959,1.9127,0.52853,,,,,1.9127,0.528513,0.0169386,5.27661,0.0049
0.14998,90254.423,3.5268,0.57226,,,1.9391,0.52895,,,,,1.9391,0.528974,0.0172997,5.27661,0.0049
0.14998,90434.422,3.53,0.57976,0.0,,1.9655,0.52943,3.53,0.57976,2.44065,0.410195,1.9655,0.529418,0.0173983,5.31666,0.0049
0.14998,90614.422,3.5329,0.58725,,0.0,1.992,0.52986,,,,,1.992,0.529872,0.0163064,5.38516,0.0049
0.14998,90794.423,3.5359,0.59475,0.0,0.0,2.0185,0.53031,,,,,2.0185,0.530314,0.0174335,5.38516,0.0049
0.14998,90974.423,3.5389,0.60225,,2.5325,2.045,0.53076,,,,,2.045,0.530751,0.0162783,5.45367,0.0049
0.14998,91154.423,3.5416,0.60974,0.0,,2.0716,0.53117,3.5416,0.60974,2.64264,0.378435,2.0716,0.531196,0.0156129,5.45367,0.0049
0.14998,91334.422,3.5446,0.61724,,,2.0981,0.53162,,,,,2.0981,0.53161,0.0159713,5.53158,0.0049
0.14998,91514.423,3.5473,0.62474,0.0,0.0,2.1247,0.53202,,,,,2.1247,0.532027,0.0153278,5.60961,0.0049
0.14998,91694.422,3.55,0.63224,0.0,0.0,2.1513,0.53243,3.55,0.63224,2.7648,0.362122,2.1513,0.53245,0.0151581,5.60961,0.0049
0.14998,91874.423,3.5528,0.63973,,,2.1779,0.53285,,,,,2.1779,0.532828,0.0145973,5.70864,0.0049
0.14998,92054.423,3.5553,0.64723,0.0,0.0,2.2046,0.53322,,,,,2.2046,0.533226,0.0146775,5.70864,0.0049
0.14998,92234.423,3.5579,0.65473,0.35609,,2.2313,0.53361,3.5579,0.65473,2.87846,0.347455,2.2313,0.533634,0.015772,5.7371,0.0049
0.14999,92414.422,3.5607,0.66222,,0.0,2.2579,0.53407,,,,,2.2579,0.534026,0.0140646,5.7371,0.0049
0.14998,92594.422,3.5631,0.66972,0.0,,2.2846,0.53439,,,,,2.2846,0.534408,0.0140895,5.77496,0.0049
0.14999,92774.422,3.5658,0.67722,,0.0,2.3114,0.53483,3.5658,0.67722,2.86825,0.349448,2.3114,0.53478,0.0149079,5.77496,0.0049
0.14997,92954.422,3.5684,0.68471,0.34355,2.9437,2.3381,0.53515,,,,,2.3381,0.535157,0.0136298,5.86458,0.0049
0.14997,93134.422,3.5707,0.69221,,,2.3649,0.5355,,,,,2.3649,0.535533,0.0149123,5.86458,0.0049
0.14998,93314.422,3.5733,0.69971,0.0,0.0,2.3916,0.53592,,,,,2.3916,0.535909,0.0143032,5.95202,0.0049
0.14998,93494.422,3.5755,0.70721,,0.0,2.4184,0.53625,,,,,2.4184,0.536294,0.0127225,5.95202,0.0049
0.14998,93674.422,3.5781,0.7147,0.32461,,2.4453,0.53664,3.5781,0.7147,3.25542,0.308133,2.4453,0.536631,0.0133522,6.05839,0.0049
0.14999,93854.422,3.5803,0.7222,,0.0,2.4721,0.53701,,,,,2.4721,0.536968,0.011551,6.05839,0.0049
0.14997,94034.423,3.5825,0.7297,0.0,,2.4989,0.53727,,,,,2.4989,0.537302,0.0130717,6.23545,0.0049
0.14998,94214.422,3.5849,0.73719,,0.0,2.5258,0.53766,,,,,2.5258,0.537634,0.0126609,6.23545,0.0049
0.14997,94394.422,3.5869,0.74469,0.0,,2.5527,0.53793,,,,,2.5527,0.537973,0.0114452,6.43144,0.0049
0.14998,94574.423,3.5891,0.75219,,,2.5796,0.53829,,,,,2.5796,0.538273,0.0120435,6.43144,0.0049
0.14998,94754.422,3.5911,0.75968,0.0,0.0,2.6065,0.53859,,,,,2.6065,0.538594,0.0114141,6.60632,0.0049
0.14999,94934.422,3.593,0.76718,,,2.6334,0.53891,,,,,2.6334,0.5389,0.0115754,6.60632,0.0049
0.14997,95114.422,3.5952,0.77468,0.0,0.0,2.6604,0.53917,,,,,2.6604,0.539182,0.0102085,6.60632,0.0049
0.14997,95294.422,3.597,0.78218,,,2.6873,0.53944,,,,,2.6873,0.539493,0.0120671,6.78338,0.0049
0.14999,95474.422,3.5991,0.78967,0.0,,2.7143,0.53983,,,,,2.7143,0.539791,0.0106915,6.78338,0.0049
0.14998,95654.422,3.6009,0.79717,,0.0,2.7413,0.54006,,,,,2.7413,0.540081,0.00938487,6.91086,0.0049
0.14998,95834.422,3.6029,0.80467,0.0,,2.7683,0.54036,,,,,2.7683,0.54035,0.0106876,6.91086,0.0049
0.14998,96014.422,3.6046,0.81216,,0.0,2.7953,0.54062,,,,,2.7953,0.540633,0.00936156,6.91086,0.0049
0.14999,96194.422,3.6064,0.81966,,,2.8224,0.54092,,,,,2.8224,0.540906,0.0100622,6.97719,0.0049
0.14998,96374.423,3.6084,0.82716,0.24871,4.106,2.8494,0.54119,,,,,2.8494,0.54116,0.0100091,6.97719,0.0049
0.14998,96554.423,3.61,0.83465,,,2.8765,0.54143,3.61,0.83465,4.2266,0.237206,2.8765,0.541454,0.0103845,6.97719,0.0049
0.14998,96734.422,3.6118,0.84215,0.0,0.0,2.9035,0.5417,,,,,2.9035,0.541725,0.0101404,7.10467,0.0049
0.14998,96914.422,3.6137,0.84965,,4.2293,2.9306,0.54198,,,,,2.9306,0.541973,0.00873996,7.10467,0.0049
0.14998,97094.423,3.6152,0.85715,0.0,,2.9577,0.54221,,,,,2.9577,0.542224,0.00944056,7.10467,0.0049
0.14998,97274.422,3.6171,0.86464,,0.0,2.9848,0.54249,,,,,2.9848,0.542477,0.00978156,7.2628,0.0049
0.14998,97454.422,3.6187,0.87214,,4.3742,3.0119,0.54273,,,,,3.0119,0.542738,0.00919296,7.2628,0.0049
0.14998,97634.422,3.6204,0.87964,0.0,,3.0391,0.54299,,,,,3.0391,0.543005,0.00986398,7.36917,0.0049
0.14998,97814.423,3.6222,0.88713,,0.0,3.0662,0.54326,3.6222,0.88713,4.50969,0.222927,3.0662,0.54325,0.00931824,7.36917,0.0049
0.14998,97994.422,3.6238,0.89463,0.0,4.458,3.0934,0.5435,,,,,3.0934,0.543517,0.00903066,7.36917,0.0049
0.14999,98174.422,3.6254,0.90213,,,3.1206,0.54377,,,,,3.1206,0.543761,0.00875181,7.43767,0.0049
0.14998,98354.422,3.6271,0.90962,0.0,0.0,3.1478,0.54399,,,,,3.1478,0.543993,0.00767899,7.43767,0.0049
0.14999,98534.423,3.6286,0.91712,,4.5921,3.1749,0.54425,,,,,3.1749,0.544228,0.00908757,7.43767,0.0049
0.14999,98714.422,3.6304,0.92462,0.0,,3.2022,0.54452,,,,,3.2022,0.544463,0.0088608,7.51559,0.0049
0.14998,98894.422,3.6318,0.93211,,0.0,3.2294,0.5447,,,,,3.2294,0.544719,0.00871949,7.51559,0.0049
0.14998,99074.422,3.6335,0.93961,0.0,4.6892,3.2566,0.54495,,,,,3.2566,0.544954,0.00928943,7.51559,0.0049
0.14998,99254.423,3.6351,0.94711,,,3.2839,0.54519,,,,,3.2839,0.545182,0.00824284,7.59362,0.0049
0.14998,99434.422,3.6366,0.95461,0.0,0.0,3.3111,0.54542,,,,,3.3111,0.545435,0.00901534,7.59362,0.0049
0.14998,99614.423,3.6383,0.9621,0.21353,,3.3384,0.54567,,,,,3.3384,0.545667,0.0088719,7.59362,0.0049
0.14998,99794.422,3.6397,0.9696,,0.0,3.3657,0.54588,,,,,3.3657,0.545912,0.00820718,7.59362,0.0049
0.14998,99974.423,3.6414,0.9771,0.0,,3.393,0.54614,,,,,3.393,0.546145,0.00906273,7.67371,0.0049
0.14998,100154.422,3.6431,0.98459,,0.0,3.4203,0.54639,,,,,3.4203,0.546375,0.00794718,7.67371,0.0049
0.14998,100334.422,3.6445,0.99209,0.0,0.0,3.4476,0.5466,,,,,3.4476,0.546621,0.008512,7.67371,0.0049
0.14998,100514.423,3.6463,0.99959,,,3.4749,0.54687,,,,,3.4749,0.546851,0.00899741,7.61473,0.0049
0.14998,100694.423,3.6478,1.0071,0.21166,0.0,3.5023,0.5471,,,,,3.5023,0.547088,0.00847781,7.61473,0.0049
0.14998,100874.423,3.6493,1.0146,,0.0,3.5296,0.54732,,,,,3.5296,0.547337,0.00902687,7.61473,0.0049
0.14998,101054.422,3.6511,1.0221,0.0,,3.557,0.54759,,,,,3.557,0.547571,0.00879907,7.47554,0.0049
0.14998,101234.422,3.6525,1.0296,0.0,0.0,3.5843,0.5478,,,,,3.5843,0.547816,0.00875487,7.47554,0.0049
0.14998,101414.422,3.6544,1.0371,,,3.6117,0.54809,,,,,3.6117,0.54806,0.00902684,7.47554,0.0049
0.14998,101594.423,3.6558,1.0446,0.0,0.0,3.6391,0.5483,,,,,3.6391,0.548299,0.00901915,7.36917,0.0049
0.14998,101774.422,3.6574,1.0521,,,3.6666,0.54854,,,,,3.6666,0.548569,0.00981317,7.36917,0.0049
0.14998,101954.422,3.6593,1.0596,0.0,,3.694,0.54882,,,,,3.694,0.54881,0.00907614,7.36917,0.0049
0.14998,102134.422,3.6608,1.0671,,0.0,3.7214,0.54905,,,,,3.7214,0.549067,0.00904896,7.28173,0.0049
0.14998,102314.422,3.6626,1.0746,0.0,,3.7489,0.54932,,,,,3.7489,0.54932,0.00890544,7.28173,0.0049
0.14998,102494.422,3.6641,1.0821,,,3.7763,0.54954,,,,,3.7763,0.549563,0.00865165,7.28173,0.0049
0.14999,102674.422,3.666,1.0895,0.0,0.0,3.8038,0.54986,3.666,1.0895,4.47436,0.223499,3.8038,0.549831,0.0101411,7.15425,0.0049
0.14999,102854.422,3.6677,1.097,,,3.8313,0.55012,,,,,3.8313,0.550089,0.00842581,7.15425,0.0049
0.14997,103034.422,3.6693,1.1045,0.0,,3.8588,0.55028,,,,,3.8588,0.550337,0.00932274,7.15425,0.0049
0.14998,103214.422,3.6712,1.112,,0.0,3.8863,0.55061,,,,,3.8863,0.550591,0.00984215,7.03617,0.0049
0.14998,103394.423,3.6728,1.1195,0.0,,3.9138,0.55085,,,,,3.9138,0.550857,0.00877057,7.03617,0.0049
0.14997,103574.422,3.6747,1.127,,0.0,3.9414,0.55109,,,,,3.9414,0.551118,0.0104768,6.92039,0.0049
0.14998,103754.422,3.6766,1.1345,0.0,,3.9689,0.55142,,,,,3.9689,0.551406,0.0103378,6.92039,0.0049
0.14998,103934.422,3.6782,1.142,0.23838,4.1055,3.9965,0.55166,3.6782,1.142,4.10723,0.245495,3.9965,0.551691,0.0099283,6.92039,0.0049
0.14998,104114.422,3.6803,1.1495,,,4.0241,0.55197,,,,,4.0241,0.551961,0.0104287,6.79279,0.0049
0.14998,104294.422,3.6821,1.157,0.0,0.0,4.0517,0.55224,3.6821,1.157,3.84615,0.26,4.0517,0.552244,0.0101019,6.79279,0.0049
0.14997,104474.423,3.684,1.1645,,,4.0793,0.55249,,,,,4.0793,0.552537,0.0112446,6.79279,0.0049
0.14998,104654.422,3.686,1.172,0.0,0.0,4.1069,0.55283,3.686,1.172,3.79869,0.263333,4.1069,0.552831,0.00966208,6.61584,0.0049
0.14998,104834.422,3.6878,1.1795,0.25317,,4.1346,0.5531,,,,,4.1346,0.553111,0.00995363,6.61584,0.0049
0.14998,105014.422,3.69,1.187,,0.0,4.1622,0.55343,3.69,1.187,3.75,0.266667,4.1622,0.553397,0.0111799,6.50936,0.0049
0.14998,105194.422,3.6918,1.1945,0.0,,4.1899,0.5537,,,,,4.1899,0.553715,0.0106238,6.50936,0.0049
0.14997,105374.422,3.694,1.202,,3.7357,4.2176,0.55399,3.694,1.202,3.75,0.266667,4.2176,0.554012,0.011802,6.39139,0.0049
0.14998,105554.423,3.696,1.2095,0.0,,4.2453,0.55433,,,,,4.2453,0.554329,0.011109,6.39139,0.0049
0.14998,105734.422,3.698,1.217,0.27152,0.0,4.273,0.55463,3.698,1.217,3.62391,0.276667,4.273,0.554649,0.0111871,6.39139,0.0049
0.14999,105914.422,3.7003,1.2245,,0.0,4.3007,0.55501,,,,,4.3007,0.554966,0.0117172,6.32289,0.0049
0.14999,106094.422,3.7023,1.232,0.0,,4.3285,0.55531,3.7023,1.232,3.42925,0.291758,4.3285,0.555293,0.0109312,6.32289,0.0049
0.14998,106274.422,3.7046,1.2395,,,4.3563,0.55562,,,,,4.3563,0.55561,0.0118115,6.25657,0.0049
0.14998,106454.422,3.7066,1.247,0.0,0.0,4.384,0.55592,,,,,4.384,0.555939,0.0117079,6.25657,0.0049
0.14998,106634.422,3.7089,1.2545,,3.374,4.4118,0.55626,,,,,4.4118,0.556278,0.0126473,6.10796,0.0049
0.14999,106814.422,3.7113,1.262,0.0,,4.4397,0.55666,,,,,4.4397,0.55662,0.012583,6.10796,0.0049
0.14997,106994.422,3.7135,1.2695,,3.3033,4.4675,0.55691,,,,,4.4675,0.556973,0.0119295,5.98989,0.0049
0.14998,107174.422,3.7159,1.277,0.0,,4.4953,0.55731,,,,,4.4953,0.55731,0.0128117,5.98989,0.0049
0.14998,107354.423,3.7183,1.2845,0.30564,0.0,4.5232,0.55767,3.7183,1.2845,3.24785,0.308,4.5232,0.557646,0.0119257,5.98989,0.0049
0.14998,107534.422,3.7205,1.292,,0.0,4.5511,0.558,,,,,4.5511,0.558006,0.0136288,5.95202,0.0049
0.14998,107714.422,3.7231,1.2995,0.0,,4.579,0.55839,,,,,4.579,0.558374,0.013595,5.95202,0.0049
0.14997,107894.422,3.7253,1.307,,0.0,4.6069,0.55868,,,,,4.6069,0.558742,0.0122754,5.95202,0.0049
0.14996,108074.422,3.728,1.3145,0.32107,,4.6349,0.55905,,,,,4.6349,0.559093,0.0135583,5.95202,0.0049
0.14998,108254.422,3.7303,1.322,,0.0,4.6628,0.55947,3.7303,1.322,3.04878,0.328,4.6628,0.559474,0.0130123,5.93309,0.0049
0.14998,108434.422,3.7327,1.3295,0.0,,4.6908,0.55983,,,,,4.6908,0.559864,0.0136,5.93309,0.0049
0.14999,108614.423,3.7354,1.337,,0.0,4.7188,0.56027,,,,,4.7188,0.560219,0.0128651,5.86458,0.0049
0.14998,108794.422,3.7377,1.3445,0.33193,,4.7468,0.56058,3.7377,1.3445,2.99602,0.333888,4.7468,0.560595,0.0133569,5.86458,0.0049
0.14998,108974.422,3.7404,1.352,,0.0,4.7748,0.56099,,,,,4.7748,0.56097,0.0140987,5.77496,0.0049
0.14998,109154.423,3.7427,1.3594,,,4.8029,0.56133,,,,,4.8029,0.561356,0.0132151,5.77496,0.0049
0.14999,109334.422,3.7453,1.3669,0.0,0.0,4.831,0.56176,,,,,4.831,0.561747,0.0144276,5.75603,0.0049
0.14999,109514.423,3.7481,1.3744,0.34011,,4.859,0.56218,,,,,4.859,0.562129,0.0139035,5.77715,0.0049
0.14998,109694.423,3.7505,1.3819,,0.0,4.8871,0.5625,,,,,4.8871,0.562528,0.0138386,5.77715,0.0049
0.14998,109874.423,3.7531,1.3894,0.0,,4.9153,0.56289,,,,,4.9153,0.562908,0.0146295,5.7371,0.0049
0.14999,110054.422,3.7558,1.3969,,0.0,4.9434,0.56333,,,,,4.9434,0.563282,0.0128614,5.7371,0.0049
0.14997,110234.422,3.7582,1.4044,0.34319,,4.9716,0.56362,3.7582,1.4044,2.8795,0.347333,4.9716,0.563664,0.0137095,5.70646,0.0049
0.14998,110414.423,3.761,1.4119,,0.0,4.9998,0.56407,,,,,4.9998,0.564044,0.0147758,5.70646,0.0049
0.14998,110594.422,3.7633,1.4194,0.0,2.9172,5.028,0.56442,,,,,5.028,0.564447,0.0127523,5.7371,0.0049
0.14998,110774.423,3.7659,1.4269,,,5.0562,0.56481,3.7659,1.4269,2.94199,0.34,5.0562,0.564821,0.0141732,5.7371,0.0049
0.14998,110954.422,3.7687,1.4344,0.34391,2.9242,5.0844,0.56523,,,,,5.0844,0.565205,0.0136382,5.79608,0.0049
0.14998,111134.423,3.7711,1.4419,,,5.1127,0.56559,,,,,5.1127,0.565601,0.0140902,5.79608,0.0049
0.14998,111314.422,3.7737,1.4494,0.0,2.9235,5.141,0.56598,3.7737,1.4494,2.8795,0.347333,5.141,0.565967,0.0133351,5.82454,0.0049
0.14997,111494.423,3.7761,1.4569,,,5.1693,0.5663,,,,,5.1693,0.566359,0.0139649,5.82454,0.0049
0.14998,111674.422,3.7789,1.4644,,2.9618,5.1976,0.56676,,,,,5.1976,0.566742,0.0133662,5.88352,0.0049
0.14998,111854.422,3.7812,1.4719,0.0,,5.226,0.5671,,,,,5.226,0.567136,0.0131386,5.88352,0.0049
0.14999,112034.422,3.7839,1.4794,,2.9597,5.2543,0.56755,,,,,5.2543,0.567508,0.0134053,5.91416,0.0049
0.14998,112214.423,3.7862,1.4869,0.0,,5.2827,0.56785,3.7862,1.4869,2.91126,0.343778,5.2827,0.567883,0.0125201,5.91416,0.0049
0.14997,112394.422,3.789,1.4944,,2.9739,5.3111,0.56824,,,,,5.3111,0.568241,0.0132927,5.88352,0.0049
0.14998,112574.422,3.7912,1.5019,0.0,,5.3395,0.5686,,,,,5.3395,0.568623,0.0135259,5.88352,0.0049
0.14999,112754.422,3.7938,1.5094,,3.0239,5.3679,0.56903,3.7938,1.5094,2.97957,0.336,5.3679,0.568997,0.013429,5.84347,0.0049
0.14998,112934.422,3.7964,1.5169,0.0,,5.3964,0.56938,,,,,5.3964,0.569383,0.0131628,5.84347,0.0049
0.14998,113114.423,3.7987,1.5244,,2.9933,5.4248,0.56973,,,,,5.4248,0.569753,0.0139877,5.86458,0.0049
0.14997,113294.423,3.8014,1.5319,0.0,,5.4533,0.5701,,,,,5.4533,0.570118,0.0123285,5.86458,0.0049
0.14997,113474.422,3.8037,1.5394,,3.0208,5.4818,0.57044,,,,,5.4818,0.57048,0.0129929,5.86458,0.0049
0.14998,113654.423,3.8064,1.5469,0.0,,5.5104,0.57088,3.8064,1.5469,3.00649,0.332667,5.5104,0.570855,0.0136805,5.86458,0.0049
0.14998,113834.422,3.8088,1.5544,,3.0192,5.5389,0.57124,,,,,5.5389,0.571243,0.0127862,5.82454,0.0049
0.14998,114014.422,3.8112,1.5619,0.0,,5.5675,0.5716,,,,,5.5675,0.5716,0.0129027,5.82454,0.0049
0.14998,114194.422,3.8138,1.5694,,3.0001,5.5961,0.57199,3.8138,1.5694,3.01292,0.332,5.5961,0.57197,0.0129939,5.81501,0.0049
0.14997,114374.422,3.8162,1.5769,0.0,,5.6247,0.57232,,,,,5.6247,0.572359,0.0134996,5.81501,0.0049
0.14998,114554.423,3.8189,1.5844,,2.9818,5.6533,0.57276,,,,,5.6533,0.572734,0.013414,5.8056,0.0049
0.14998,114734.422,3.8213,1.5919,0.0,,5.6819,0.57312,,,,,5.6819,0.573115,0.0125339,5.81501,0.0049
0.14998,114914.422,3.8237,1.5994,,2.9828,5.7106,0.57348,,,,,5.7106,0.573499,0.0144643,5.81501,0.0049
0.14999,115094.423,3.8264,1.6068,0.0,,5.7393,0.57392,3.8264,1.6068,3.05035,0.328353,5.7393,0.573897,0.0131316,5.8056,0.0049
0.14998,115274.423,3.8288,1.6143,,2.9537,5.7679,0.57424,,,,,5.7679,0.574281,0.0130472,5.8056,0.0049
0.14999,115454.423,3.8315,1.6218,0.0,,5.7967,0.57469,,,,,5.7967,0.574642,0.0132025,5.79608,0.0049
0.14998,115634.422,3.8339,1.6293,,2.9279,5.8254,0.57501,3.8339,1.6293,2.90698,0.344,5.8254,0.575035,0.013016,5.79608,0.0049
0.14999,115814.423,3.8365,1.6368,0.0,,5.8541,0.57544,,,,,5.8541,0.57542,0.014836,5.7371,0.0049
0.14999,115994.422,3.8392,1.6443,,2.9194,5.8829,0.57584,,,,,5.8829,0.575819,0.0136036,5.7371,0.0049
0.14998,116174.422,3.8417,1.6518,0.0,,5.9117,0.57618,3.8417,1.6518,2.8795,0.347333,5.9117,0.576215,0.013532,5.68753,0.0049
0.14998,116354.423,3.8444,1.6593,,,5.9405,0.57658,,,,,5.9405,0.576576,0.0128412,5.68753,0.0049
0.14997,116534.422,3.8469,1.6668,0.0,0.0,5.9694,0.57692,,,,,5.9694,0.576956,0.0130264,5.66859,0.0049
0.14999,116714.422,3.8494,1.6743,,,5.9982,0.57737,,,,,5.9982,0.577353,0.0138804,5.66859,0.0049
0.14998,116894.422,3.8522,1.6818,0.0,0.0,6.0271,0.57775,,,,,6.0271,0.57773,0.0127776,5.68753,0.0049
0.14998,117074.422,3.8546,1.6893,,,6.056,0.57811,,,,,6.056,0.578127,0.0141602,5.68753,0.0049
0.14998,117254.423,3.8574,1.6968,0.0,0.0,6.0849,0.57853,,,,,6.0849,0.578524,0.0137084,5.7371,0.0049
0.14998,117434.423,3.8599,1.7043,0.0,,6.1138,0.57891,,,,,6.1138,0.578915,0.0129735,5.7371,0.0049
0.14998,117614.422,3.8625,1.7118,,0.0,6.1427,0.5793,,,,,6.1427,0.579296,0.0136153,5.77715,0.0049
0.14998,117794.422,3.8652,1.7193,0.0,,6.1717,0.5797,,,,,6.1717,0.579688,0.0134971,5.77715,0.0049
0.14998,117974.422,3.8677,1.7268,,0.0,6.2007,0.58008,,,,,6.2007,0.580088,0.0129695,5.7371,0.0049
0.14998,118154.423,3.8704,1.7343,0.0,0.0,6.2297,0.58048,3.8704,1.7343,2.84995,0.350889,6.2297,0.580472,0.0137926,5.68753,0.0049
0.14999,118334.423,3.873,1.7418,,,6.2587,0.58091,,,,,6.2587,0.580864,0.0135978,5.68753,0.0049
0.14998,118514.422,3.8755,1.7493,0.0,0.0,6.2878,0.58125,,,,,6.2878,0.581263,0.0126511,5.68753,0.0049
0.14997,118694.422,3.8782,1.7568,0.34688,,6.3168,0.58161,3.8782,1.7568,2.8795,0.347333,6.3168,0.581621,0.0136268,5.68753,0.0049
0.14998,118874.422,3.8806,1.7643,,0.0,6.3459,0.58201,,,,,6.3459,0.582018,0.013545,5.75603,0.0049
0.14997,119054.422,3.8832,1.7718,0.0,,6.375,0.58236,,,,,6.375,0.582403,0.0130981,5.75603,0.0049
0.14997,119234.422,3.8859,1.7793,,0.0,6.4041,0.58277,3.8859,1.7793,2.97619,0.336,6.4041,0.582779,0.0128267,5.88352,0.0049
0.14998,119414.423,3.8883,1.7868,0.3411,,6.4333,0.58317,,,,,6.4333,0.583166,0.01271,5.88352,0.0049
0.14998,119594.422,3.8909,1.7943,,0.0,6.4624,0.58356,,,,,6.4624,0.58354,0.0127128,6.02053,0.0049
0.14998,119774.423,3.8933,1.8018,0.0,,6.4916,0.58392,,,,,6.4916,0.583918,0.0123323,6.02053,0.0049
0.14998,119954.422,3.8956,1.8093,,0.0,6.5208,0.58426,,,,,6.5208,0.584274,0.0119985,6.18588,0.0049
0.14998,120134.422,3.8981,1.8168,0.32198,,6.55,0.58464,3.8981,1.8168,3.25663,0.308,6.55,0.584612,0.0116509,6.18588,0.0049
0.14998,120314.423,3.9001,1.8243,,0.0,6.5793,0.58494,,,,,6.5793,0.584955,0.0116715,6.41033,0.0049
0.14998,120494.422,3.9025,1.8318,0.0,,6.6085,0.5853,,,,,6.6085,0.585281,0.0115717,6.41033,0.0049
0.14998,120674.422,3.9046,1.8393,,,6.6378,0.58561,,,,,6.6378,0.585607,0.0104465,6.41033,0.0049
0.14998,120854.422,3.9065,1.8467,0.0,0.0,6.6671,0.5859,,,,,6.6671,0.585928,0.0110691,6.69594,0.0049
0.14998,121034.423,3.9087,1.8542,,3.687,6.6963,0.58623,,,,,6.6963,0.586219,0.00981517,6.69594,0.0049
0.14998,121214.422,3.9104,1.8617,0.0,,6.7257,0.58648,,,,,6.7257,0.586494,0.00826528,6.9298,0.0049
0.14997,121394.423,3.9122,1.8692,,0.0,6.755,0.58671,,,,,6.755,0.586749,0.00949883,6.9298,0.0049
0.14998,121574.422,3.9142,1.8767,0.0,,6.7843,0.58705,3.9142,1.8767,4.2094,0.24,6.7843,0.587014,0.00876504,6.9298,0.0049
0.14997,121754.422,3.9157,1.8842,0.0,0.0,6.8137,0.58724,,,,,6.8137,0.587293,0.00942034,7.09526,0.0049
0.14998,121934.422,3.9177,1.8917,,,6.843,0.58758,,,,,6.843,0.58756,0.0096023,7.09526,0.0049
0.14998,122114.423,3.9192,1.8992,0.0,,6.8724,0.5878,,,,,6.8724,0.587822,0.00793017,7.09526,0.0049
0.14998,122294.422,3.9209,1.9067,,0.0,6.9018,0.58806,,,,,6.9018,0.588071,0.00933233,7.23434,0.0049
0.14998,122474.423,3.9227,1.9142,0.0,,6.9312,0.58833,,,,,6.9312,0.588323,0.00815018,7.23434,0.0049
0.14997,122654.423,3.9243,1.9217,,,6.9606,0.58853,,,,,6.9606,0.588574,0.00804196,7.18488,0.0049
0.14998,122834.422,3.9262,1.9292,0.0,0.0,6.99,0.58885,3.9262,1.9292,4.33286,0.231429,6.99,0.588814,0.00866196,7.18488,0.0049
0.14998,123014.422,3.9277,1.9367,,,7.0195,0.58908,,,,,7.0195,0.589095,0.00914443,7.18488,0.0049
0.14998,123194.423,3.9297,1.9442,0.0,,7.0489,0.58938,,,,,7.0489,0.589356,0.00955812,6.9983,0.0049
0.14998,123374.422,3.9314,1.9517,,0.0,7.0784,0.58963,,,,,7.0784,0.589619,0.00914562,6.9983,0.0049
0.14998,123554.422,3.933,1.9592,0.0,,7.1079,0.58987,,,,,7.1079,0.589911,0.0102029,6.9983,0.0049
0.14998,123734.422,3.9351,1.9667,,0.0,7.1374,0.59019,,,,,7.1374,0.590183,0.00947594,6.73381,0.0049
0.14998,123914.422,3.9368,1.9742,0.0,,7.1669,0.59044,,,,,7.1669,0.590465,0.00899349,6.73381,0.0049
0.14998,124094.422,3.9388,1.9817,,3.9356,7.1964,0.59074,,,,,7.1964,0.590747,0.00949883,6.73381,0.0049
0.14998,124274.422,3.941,1.9892,0.0,,7.2259,0.59107,,,,,7.2259,0.591039,0.00962371,6.47883,0.0049
0.14999,124454.423,3.9428,1.9967,,0.0,7.2555,0.59138,,,,,7.2555,0.591357,0.0103938,6.47883,0.0049
0.14999,124634.423,3.9451,2.0042,0.0,0.0,7.2851,0.59173,,,,,7.2851,0.591677,0.0121023,6.29443,0.0049
0.14999,124814.422,3.9473,2.0117,,,7.3146,0.59206,,,,,7.3146,0.592006,0.0101628,6.29443,0.0049
0.14996,124994.423,3.9493,2.0192,0.0,,7.3442,0.59224,,,,,7.3442,0.592323,0.0110662,6.10796,0.0049
0.14997,125174.422,3.9517,2.0267,,0.0,7.3739,0.59264,,,,,7.3739,0.592645,0.0124748,6.10796,0.0049
0.14998,125354.422,3.9539,2.0342,,3.3049,7.4035,0.59301,3.9539,2.0342,3.16557,0.316,7.4035,0.59302,0.0113289,5.97095,0.0049
0.14998,125534.422,3.9564,2.0417,0.0,,7.4331,0.59338,,,,,7.4331,0.593368,0.0126655,5.97095,0.0049
0.14998,125714.423,3.9587,2.0492,,3.1288,7.4628,0.59373,,,,,7.4628,0.593745,0.0120035,5.84565,0.0049
0.14998,125894.422,3.9612,2.0567,0.0,,7.4925,0.5941,,,,,7.4925,0.594118,0.0133856,5.84565,0.0049
0.14999,126074.422,3.9639,2.0642,,2.9893,7.5222,0.59455,,,,,7.5222,0.594493,0.0130171,5.68753,0.0049
0.14998,126254.422,3.9663,2.0717,0.0,,7.5519,0.59487,3.9663,2.0717,2.8795,0.347333,7.5519,0.594889,0.0121907,5.68753,0.0049
0.14998,126434.423,3.9689,2.0792,,2.8541,7.5817,0.59526,,,,,7.5817,0.595257,0.013979,5.56004,0.0049
0.14998,126614.422,3.9718,2.0867,0.0,,7.6114,0.59569,,,,,7.6114,0.595674,0.0137423,5.56004,0.0049
0.14998,126794.422,3.9745,2.0941,,,7.6412,0.5961,,,,,7.6412,0.59612,0.0150491,5.49372,0.0049
0.15,126974.422,3.9775,2.1016,0.0,0.0,7.671,0.59663,,,,,7.671,0.596545,0.0140979,5.49372,0.0049
0.14998,127154.422,3.9802,2.1091,0.0,,7.7009,0.59695,,,,,7.7009,0.596976,0.0142521,5.38516,0.0049
0.14999,127334.422,3.9833,2.1166,,0.0,7.7307,0.59746,,,,,7.7307,0.597406,0.0156195,5.27661,0.0049
0.14998,127514.422,3.9863,2.1241,0.0,0.0,7.7606,0.59787,3.9863,2.1241,2.53246,0.395,7.7606,0.597851,0.0142576,5.27661,0.0049
0.14998,127694.422,3.9892,2.1316,,2.4781,7.7905,0.5983,,,,,7.7905,0.598318,0.0164394,5.24815,0.0049
0.14999,127874.422,3.9925,2.1391,0.0,,7.8204,0.59884,,,,,7.8204,0.598776,0.0158415,5.24815,0.0049
0.14998,128054.422,3.9954,2.1466,,,7.8504,0.59923,,,,,7.8504,0.59926,0.0151943,5.23874,0.0049
0.14998,128234.423,3.9985,2.1541,0.41494,2.3632,7.8803,0.5997,,,,,7.8803,0.599715,0.0158007,5.22922,0.0049
0.14998,128414.422,4.0019,2.1616,,,7.9103,0.6002,4.0019,2.1616,2.35359,0.425,7.9103,0.600171,0.0154918,5.22922,0.0049
0.14998,128594.422,4.0049,2.1691,0.0,,7.9403,0.60065,,,,,7.9403,0.600669,0.0168555,5.17024,0.0049
0.14998,128774.422,4.0083,2.1766,0.42855,0.0,7.9704,0.60116,,,,,7.9704,0.601169,0.0170272,5.12067,0.0049
0.14998,128954.422,4.0116,2.1841,,0.0,8.0004,0.60166,,,,,8.0004,0.601659,0.0156737,5.12067,0.0049
0.14998,129134.422,4.0147,2.1916,0.0,,8.0305,0.60212,,,,,8.0305,0.602143,0.0163951,5.12067,0.0049
0.14999,129314.422,4.0181,2.1991,0.43234,0.0,8.0606,0.60267,4.0181,2.1991,2.35881,0.425,8.0606,0.602622,0.0158141,5.17024,0.0049
0.14998,129494.422,4.0212,2.2066,,0.0,8.0908,0.6031,,,,,8.0908,0.603116,0.0161514,5.17024,0.0049
0.14999,129674.422,4.0246,2.2141,0.0,2.3166,8.1209,0.60365,,,,,8.1209,0.603588,0.0161676,5.22922,0.0049
0.14998,129854.422,4.0275,2.2216,,,8.1511,0.60404,,,,,8.1511,0.604077,0.0156846,5.23874,0.0049
0.14999,130034.423,4.0307,2.2291,0.0,0.0,8.1813,0.60456,,,,,8.1813,0.604547,0.0157585,5.23874,0.0049
0.14997,130214.422,4.034,2.2366,,2.3879,8.2115,0.60498,4.034,2.2366,2.41034,0.415,8.2115,0.605008,0.0155096,5.24815,0.0049
0.14999,130394.422,4.0369,2.2441,0.0,,8.2418,0.60549,,,,,8.2418,0.605491,0.0153858,5.25768,0.0049
0.14998,130574.422,4.04,2.2516,0.0,,8.2721,0.60592,,,,,8.2721,0.605944,0.0147915,5.25768,0.0049
0.14998,130754.422,4.0432,2.2591,,0.0,8.3024,0.6064,,,,,8.3024,0.606382,0.0148042,5.33559,0.0049
0.14999,130934.423,4.0459,2.2666,0.0,0.0,8.3327,0.60684,4.0459,2.2666,2.5641,0.39,8.3327,0.606831,0.0138256,5.33559,0.0049
0.14998,131114.422,4.0489,2.2741,,2.5747,8.363,0.60725,,,,,8.363,0.607241,0.0142471,5.4726,0.0049
0.14997,131294.423,4.0519,2.2816,0.0,,8.3934,0.60766,,,,,8.3934,0.607658,0.0139006,5.66859,0.0049
0.14998,131474.422,4.0544,2.2891,,,8.4238,0.60808,4.0544,2.2891,2.70925,0.369111,8.4238,0.60809,0.0140483,5.66859,0.0049
0.14998,131654.422,4.0573,2.2966,,0.0,8.4542,0.60851,,,,,8.4542,0.608511,0.0141741,5.86458,0.0049
0.14998,131834.423,4.0599,2.3041,0.0,,8.4846,0.6089,,,,,8.4846,0.608921,0.0127342,5.86458,0.0049
0.14999,132014.422,4.0624,2.3116,,0.0,8.5151,0.60932,,,,,8.5151,0.609308,0.0123844,6.05839,0.0049
0.14998,132194.422,4.0651,2.3191,0.0,,8.5455,0.60968,,,,,8.5455,0.609672,0.0129043,6.05839,0.0049
0.14999,132374.423,4.0673,2.3266,,0.0,8.576,0.61005,,,,,8.576,0.610052,0.0112976,6.41755,0.0049
0.14997,132554.422,4.0696,2.3341,0.0,,8.6065,0.61032,,,,,8.6065,0.610379,0.0108403,6.41755,0.0049
0.14998,132734.423,4.072,2.3416,,0.0,8.637,0.61072,,,,,8.637,0.61069,0.0107554,6.95103,0.0049
0.14998,132914.422,4.0738,2.349,0.0,3.4797,8.6676,0.61099,4.0738,2.349,3.791,0.264753,8.6676,0.611024,0.00983249,6.95103,0.0049
0.14998,133094.423,4.0759,2.3565,,,8.6981,0.6113,,,,,8.6981,0.611296,0.00880982,6.95103,0.0049
0.14998,133274.422,4.0775,2.364,0.0,0.0,8.7287,0.61154,,,,,8.7287,0.611542,0.00749234,7.04215,0.0049
0.14998,133454.422,4.079,2.3715,0.0,4.2693,8.7593,0.61177,,,,,8.7593,0.611771,0.00744778,7.04215,0.0049
0.14998,133634.422,4.0805,2.379,,,8.7898,0.61199,,,,,8.7898,0.611978,0.00598405,7.04215,0.0049
0.14999,133814.422,4.0814,2.3865,0.0,0.0,8.8204,0.61217,,,,,8.8204,0.612156,0.00536588,5.9207,0.0049
0.14999,133994.422,4.0826,2.394,,,8.851,0.61235,,,,,8.851,0.612293,0.00352735,5.9207,0.0049
0.14998,134174.423,4.0832,2.4015,0.0,0.0,8.8817,0.6124,,,,,8.8817,0.612404,0.00379347,5.9207,0.0049
0.14998,134294.422,4.084,2.4065,0.0,,8.9021,0.61252,4.084,2.4065,7.95455,0.110714,8.9021,0.612488,0.00431235,5.9207,0.0049