File: Data/processed_data/folder_0072_cycle_0001_charge.csv
Current(A),Test_Time(s),Voltage(V),Charge_Capacity(Ah),dV/dQ(V/Ah),dQ/dV(Ah/V),Charge_Energy(Wh),Power(W),V_from_uniform_Q (V),Uniform_Q_grid (Ah),Q_from_uniform_V (Ah),Uniform_V_grid (V),V_from_uniform_t (V),Uniform_t_grid (h),P_from_uniform_E (W),Uniform_E_grid (Wh),Smoothed_V_from_Q (V),dV_dQ_interp_smooth (V/Ah),Smoothed_Q_from_V (Ah),dQ_dV_interp_smooth (Ah/v),Smoothed_P_from_E (W),dP_dE_interp_smooth (W/Wh)
0.14999,85811.507,3.4084,0.25248,0.0,,0.82622,0.51123,3.5049,0.544947,0.510032,3.49083,3.5049,25.7865,0.527278,1.92807,3.50478,0.445713,0.510204,2.58886,0.5273,0.0161396
0.14999,86051.507,3.4111,0.26248,0.0,,0.86032,0.51163,3.5089,0.554945,0.51756,3.49364,3.5089,25.8532,0.527876,1.96574,3.50909,0.418439,0.517427,2.53859,0.527891,0.0152646
0.14999,86291.5,3.4137,0.27248,0.0,,0.89444,0.51202,3.513,0.564944,0.524576,3.49646,3.513,25.9199,0.528471,2.00341,3.51316,0.395064,0.524517,2.49398,0.528455,0.0147676
0.14998,86531.5,3.4162,0.28248,0.0,,0.92858,0.51236,3.5172,0.574943,0.531505,3.49928,3.5172,25.9865,0.528999,2.04108,3.51701,0.375588,0.531489,2.45505,0.529008,0.0146486
0.14998,86771.5,3.419,0.29248,0.0,0.0,0.96276,0.51278,3.5208,0.584942,0.538287,3.5021,3.5208,26.0532,0.529554,2.07875,3.52068,0.357455,0.538332,2.41963,0.529565,0.0150491
0.14999,87011.5,3.4215,0.30248,0.0,,0.99696,0.51319,3.5242,0.594941,0.544986,3.50492,3.5242,26.1199,0.530135,2.11642,3.52419,0.345682,0.545096,2.38776,0.530143,0.0157483
0.14997,87251.5,3.4239,0.31248,0.0,0.0,1.0312,0.51348,3.5275,0.60494,0.552034,3.50773,3.5275,26.1865,0.530748,2.15409,3.52764,0.343653,0.551817,2.39177,0.53075,0.0165992
0.14999,87491.5,3.4264,0.32247,0.0,0.0,1.0654,0.51393,3.531,0.614939,0.558329,3.51055,3.531,26.2532,0.531406,2.19176,3.53112,0.352868,0.558627,2.41802,0.531392,0.0173409
0.14998,87731.5,3.429,0.33247,0.0,0.0,1.0997,0.51428,3.5348,0.624937,0.56579,3.51337,3.5348,26.3199,0.532052,2.22943,3.53473,0.371088,0.565516,2.49752,0.532053,0.0175875
0.14999,87971.5,3.4318,0.34247,0.0,0.0,1.134,0.51474,3.53859,0.634936,0.572422,3.51619,3.5386,26.3865,0.532716,2.2671,3.53853,0.391208,0.572739,2.60197,0.532709,0.017233
0.14999,88211.5,3.4345,0.35247,,0.0,1.1683,0.51514,3.54249,0.644935,0.580464,3.51901,3.5425,26.4532,0.533324,2.30478,3.54253,0.406834,0.58024,2.73918,0.533337,0.016188
0.14999,88451.5,3.4371,0.36247,,0.0,1.2027,0.51553,3.5465,0.654934,0.587891,3.52182,3.5465,26.5199,0.533927,2.34245,3.54665,0.415891,0.588113,2.8378,0.533915,0.0145663
0.14998,88691.5,3.44,0.37247,,,1.2371,0.51593,3.5507,0.664933,0.596054,3.52464,3.5507,26.5865,0.534461,2.38012,3.55079,0.411774,0.596258,2.92877,0.534432,0.0129068
0.14999,88931.5,3.443,0.38247,,3.3809,1.2715,0.51642,3.5549,0.674932,0.604824,3.52746,3.5549,26.6532,0.534921,2.41779,3.55479,0.391038,0.604458,2.91073,0.534898,0.0117188
0.14998,89171.5,3.4463,0.39247,,0.0,1.3059,0.51688,3.5587,0.684931,0.612388,3.53028,3.5587,26.7199,0.535344,2.45546,3.55853,0.358145,0.612599,2.85333,0.535323,0.010881
0.14999,89411.5,3.4496,0.40247,,0.0,1.3404,0.51741,3.562,0.694929,0.620622,3.5331,3.562,26.7865,0.53572,2.49313,3.56194,0.322352,0.620519,2.76448,0.535728,0.0105982
0.14998,89651.5,3.453,0.41247,0.32649,2.9356,1.3749,0.51788,3.5649,0.704928,0.628234,3.53591,3.5649,26.8532,0.536131,2.5308,3.565,0.289274,0.62815,2.63537,0.536127,0.0106042
0.14998,89891.5,3.4565,0.42247,0.0,0.0,1.4095,0.51841,3.5677,0.714927,0.635279,3.53873,3.5677,26.9199,0.5365,2.56847,3.56779,0.267628,0.6355,2.56826,0.536528,0.0107035
0.14998,90131.5,3.4602,0.43247,0.0,0.0,1.444,0.51896,3.5704,0.724926,0.64279,3.54155,3.5704,26.9865,0.53694,2.60614,3.57041,0.257026,0.642561,2.4853,0.536928,0.0106698
0.14999,90371.5,3.4642,0.44246,,,1.4787,0.5196,3.5731,0.734925,0.649369,3.54437,3.5731,27.0532,0.537387,2.64381,3.57295,0.252858,0.649526,2.42126,0.53732,0.010458
0.14999,90611.5,3.468,0.45246,,2.561,1.5133,0.52017,3.5754,0.744924,0.656258,3.54719,3.5754,27.1199,0.537708,2.68148,3.57547,0.252153,0.656271,2.39809,0.537718,0.0103117
0.14998,90851.5,3.4719,0.46246,,0.0,1.548,0.52072,3.5779,0.754923,0.663198,3.55,3.5779,27.1865,0.538095,2.71915,3.57799,0.252972,0.663037,2.40029,0.5381,0.0100671
0.14999,91091.5,3.476,0.47246,,,1.5827,0.52137,3.5804,0.764921,0.669989,3.55282,3.5804,27.2532,0.538504,2.75682,3.58052,0.251909,0.66989,2.46329,0.538475,0.00980604
0.14998,91331.5,3.4801,0.48246,,0.0,1.6175,0.52195,3.5831,0.77492,0.676994,3.55564,3.5831,27.3199,0.538845,2.79449,3.58302,0.249107,0.676953,2.58489,0.538838,0.00953401
0.14999,91571.5,3.484,0.49246,,,1.6523,0.52257,3.5856,0.784919,0.684333,3.55846,3.5856,27.3865,0.539192,2.83216,3.5855,0.246993,0.684575,2.78571,0.539192,0.00919741
0.14999,91811.5,3.4878,0.50246,,2.5675,1.6872,0.52314,3.588,0.794918,0.692927,3.56128,3.588,27.4532,0.539543,2.86983,3.58793,0.241293,0.692787,3.07026,0.539536,0.00901386
0.14998,92051.5,3.4917,0.51246,,0.0,1.7221,0.52369,3.5903,0.804917,0.701995,3.56409,3.5903,27.5199,0.539876,2.9075,3.59032,0.234765,0.701908,3.37333,0.539866,0.0088308
0.14998,92291.506,3.4957,0.52246,,,1.757,0.52429,3.5926,0.814916,0.711409,3.56691,3.5926,27.5865,0.540189,2.94517,3.59263,0.227635,0.711802,3.65604,0.540198,0.00852275
0.14998,92531.5,3.4997,0.53246,,0.0,1.792,0.52489,3.595,0.824915,0.722145,3.56973,3.595,27.6532,0.540495,2.98284,3.59488,0.221532,0.722361,3.83339,0.540525,0.00866887
0.14998,92771.5,3.5037,0.54246,,,1.827,0.52548,3.5971,0.834913,0.733212,3.57255,3.5971,27.7199,0.540816,3.02051,3.59707,0.215678,0.733345,3.94567,0.540849,0.00865219
0.14998,93011.5,3.5079,0.55245,,2.382,1.8621,0.52611,3.5993,0.844912,0.744795,3.57537,3.5993,27.7865,0.541178,3.05818,3.59921,0.213542,0.744474,3.98413,0.541169,0.00851165
0.14999,93251.5,3.5122,0.56245,,0.0,1.8972,0.52679,3.6012,0.854911,0.755815,3.57818,3.6012,27.8532,0.541515,3.09585,3.60134,0.209465,0.755657,3.97039,0.541493,0.0085484
0.14998,93491.5,3.5162,0.57245,,,1.9323,0.52736,3.6033,0.86491,0.767434,3.581,3.6033,27.9199,0.541816,3.13352,3.60341,0.207261,0.766865,3.99275,0.541811,0.00837188
0.14998,93731.5,3.5198,0.58245,,0.0,1.9675,0.5279,3.6054,0.874909,0.778343,3.58382,3.6054,27.9865,0.542123,3.17119,3.60548,0.206016,0.778135,4.01472,0.542125,0.00835923
0.14999,93971.5,3.5233,0.59245,,2.8124,2.0027,0.52846,3.6077,0.884908,0.790062,3.58664,3.6077,28.0532,0.542417,3.20886,3.60754,0.205658,0.789587,4.09356,0.542436,0.00828281
0.14999,94211.5,3.5267,0.60245,,0.0,2.0379,0.52897,3.6097,0.894906,0.801705,3.58946,3.6097,28.1199,0.542735,3.24653,3.6096,0.206873,0.801298,4.2206,0.542747,0.00813783
0.14999,94451.5,3.5303,0.61245,,0.0,2.0732,0.52951,3.6115,0.904905,0.813295,3.59227,3.6115,28.1865,0.543068,3.2842,3.61164,0.203976,0.813411,4.36246,0.543056,0.00816696
0.14998,94691.5,3.5339,0.62245,,,2.1085,0.53001,3.6136,0.914904,0.825499,3.59509,3.6136,28.2532,0.543383,3.32187,3.61367,0.200418,0.825892,4.51161,0.543369,0.008491
0.14999,94931.5,3.5374,0.63245,,,2.1439,0.53057,3.6157,0.924903,0.838975,3.59791,3.6157,28.3199,0.543677,3.35954,3.61569,0.200124,0.838801,4.65197,0.543685,0.00835951
0.14999,95171.506,3.5414,0.64245,,,2.1793,0.53117,3.61779,0.934902,0.852056,3.60073,3.6178,28.3865,0.543979,3.39721,3.61769,0.200769,0.852044,4.74319,0.543999,0.00826088
0.14998,95411.5,3.5455,0.65244,,0.0,2.2147,0.53175,3.6196,0.944901,0.866145,3.60354,3.6196,28.4532,0.544288,3.43488,3.6197,0.202356,0.865493,4.81412,0.544308,0.0081159
0.14998,95651.506,3.5497,0.66244,,,2.2502,0.53238,3.6216,0.9549,0.879735,3.60636,3.6216,28.5199,0.544593,3.47255,3.6217,0.200797,0.8791,4.8397,0.544614,0.00812795
0.14999,95891.507,3.5539,0.67244,,,2.2857,0.53305,3.6238,0.964898,0.893066,3.60918,3.6238,28.5865,0.544942,3.51022,3.62372,0.199283,0.892835,4.87503,0.544919,0.00813633
0.14998,96131.5,3.5577,0.68244,,2.5625,2.3213,0.53358,3.6258,0.974897,0.906479,3.612,3.6258,28.6532,0.545246,3.54789,3.62569,0.198425,0.90666,4.91617,0.545226,0.00826777
0.14999,96371.5,3.5611,0.69244,,,2.3569,0.53413,3.6278,0.984896,0.920004,3.61482,3.6278,28.7199,0.545532,3.58556,3.62767,0.19838,0.920605,4.95474,0.54554,0.00831961
0.14998,96611.5,3.5642,0.70244,0.0,0.0,2.3925,0.53456,3.6296,0.994895,0.93433,3.61763,3.6296,28.7865,0.545853,3.62323,3.62967,0.197466,0.934614,4.98184,0.545855,0.00840285
0.14998,96851.5,3.5672,0.71244,0.0,0.0,2.4281,0.53501,3.6315,1.00489,0.948181,3.62045,3.6315,28.8532,0.546162,3.6609,3.63165,0.197435,0.94863,4.98245,0.546169,0.00829904
0.14998,97091.5,3.5698,0.72244,0.0,,2.4638,0.5354,3.6335,1.01489,0.962288,3.62327,3.6335,28.9199,0.546479,3.69857,3.63362,0.198353,0.962739,4.99794,0.546481,0.00829395
0.14998,97331.5,3.5723,0.73244,0.27467,,2.4995,0.53577,3.6357,1.02489,0.976715,3.62609,3.6357,28.9865,0.546803,3.73624,3.6356,0.200056,0.976847,5.02541,0.546791,0.00814924
0.14999,97571.5,3.5748,0.74244,0.0,,2.5352,0.53618,3.6377,1.03489,0.991202,3.62891,3.6377,29.0532,0.547097,3.77391,3.6376,0.199241,0.991089,5.05278,0.547097,0.00815259
0.14998,97811.5,3.5773,0.75244,0.0,,2.571,0.53652,3.6397,1.04489,1.00584,3.63172,3.6397,29.1199,0.547391,3.81158,3.6396,0.200401,1.00531,5.04971,0.547408,0.00833174
0.14999,98051.5,3.5799,0.76243,0.0,,2.6068,0.53695,3.6415,1.05489,1.01961,3.63454,3.6415,29.1865,0.547741,3.84925,3.6416,0.199876,1.01953,5.04755,0.547722,0.00839374
0.15,98291.5,3.5825,0.77243,0.25144,,2.6426,0.53738,3.6435,1.06489,1.03349,3.63736,3.6435,29.2532,0.548058,3.88692,3.6436,0.199042,1.0337,5.02768,0.548047,0.00872958
0.14998,98531.508,3.5849,0.78243,0.0,,2.6784,0.53766,3.6456,1.07489,1.04729,3.64018,3.6456,29.3199,0.548363,3.92459,3.6456,0.201177,1.04785,5.02304,0.54837,0.00875843
0.14998,98771.5,3.5873,0.79243,0.0,,2.7143,0.53802,3.6477,1.08488,1.06175,3.643,3.6477,29.3865,0.54873,3.96226,3.64762,0.204065,1.06195,4.97981,0.548702,0.00876202
0.14998,99011.5,3.5896,0.80243,0.0,,2.7502,0.53837,3.64979,1.09488,1.07624,3.64581,3.6498,29.4532,0.549025,3.99993,3.64967,0.205843,1.07592,4.9464,0.549038,0.00890848
0.14999,99251.5,3.5921,0.81243,0.0,,2.7861,0.53878,3.6517,1.10488,1.0901,3.64863,3.6517,29.5199,0.549381,4.0376,3.65172,0.205694,1.08985,4.90951,0.549372,0.00895035
0.14999,99491.5,3.5944,0.82243,,0.0,2.822,0.53912,3.6537,1.11488,1.10386,3.65145,3.6537,29.5865,0.549705,4.07527,3.65378,0.205838,1.1036,4.86176,0.549707,0.0088313
0.14999,99731.5,3.5966,0.83243,,0.0,2.858,0.53945,3.6559,1.12488,1.11764,3.65427,3.6559,29.6532,0.550062,4.11294,3.65586,0.208743,1.11722,4.81101,0.550041,0.00898816
0.14999,99971.5,3.5986,0.84243,,,2.8939,0.53975,3.65799,1.13488,1.13109,3.65709,3.658,29.7199,0.550414,4.15061,3.65796,0.212248,1.13068,4.75531,0.550384,0.00903553
0.14999,100212,3.6008,0.85242,,,2.9299,0.54008,3.66009,1.14488,1.14409,3.6599,3.6601,29.7865,0.550715,4.18828,3.66008,0.214878,1.14402,4.68309,0.550729,0.0093573
0.14999,100452,3.6029,0.86242,,4.7617,2.9659,0.5404,3.6621,1.15488,1.15712,3.66272,3.6621,29.8532,0.551082,4.22596,3.66223,0.215803,1.15713,4.61544,0.551087,0.00959745
0.14998,100692,3.6051,0.87242,,0.0,3.002,0.54069,3.6644,1.16488,1.1704,3.66554,3.6644,29.9199,0.551449,4.26363,3.66441,0.216884,1.17007,4.55638,0.551449,0.00960553
0.14999,100932,3.6071,0.88242,,0.0,3.038,0.54103,3.66669,1.17487,1.18306,3.66836,3.6667,29.9865,0.551822,4.3013,3.6666,0.221175,1.18282,4.48729,0.551817,0.00979104
0.14998,101172,3.609,0.89242,,0.0,3.0741,0.54128,3.66879,1.18487,1.19564,3.67118,3.6688,30.0532,0.552191,4.33897,3.66883,0.225119,1.19536,4.40313,0.552184,0.00989641
0.14998,101412,3.6111,0.90242,,0.0,3.1102,0.54159,3.67099,1.19487,1.20779,3.67399,3.671,30.1199,0.552554,4.37664,3.67108,0.227623,1.20762,4.30954,0.552562,0.0100764
0.14998,101652,3.6131,0.91242,,4.8808,3.1463,0.54189,3.6733,1.20487,1.21995,3.67681,3.6733,30.1865,0.552951,4.41431,3.67337,0.229499,1.21965,4.22289,0.552943,0.0102488
0.14999,101892,3.6153,0.92242,,0.0,3.1825,0.54226,3.67579,1.21487,1.23169,3.67963,3.6758,30.2532,0.553339,4.45198,3.67569,0.234417,1.23146,4.1492,0.553336,0.0104717
0.14999,102132,3.6171,0.93242,,0.0,3.2186,0.54253,3.67819,1.22487,1.24302,3.68245,3.6782,30.3199,0.553734,4.48965,3.67805,0.238981,1.24303,4.07165,0.553735,0.0106624
0.14998,102372,3.6191,0.94242,,0.0,3.2548,0.54279,3.68039,1.23487,1.25469,3.68527,3.6804,30.3865,0.55415,4.52732,3.68046,0.242247,1.25438,3.98853,0.554143,0.0111099
0.14998,102612,3.6213,0.95241,,0.0,3.291,0.54312,3.68289,1.24487,1.26532,3.68808,3.6829,30.4532,0.554587,4.56499,3.68291,0.246395,1.26553,3.91262,0.554564,0.0111625
0.14999,102852,3.6233,0.96241,,4.9711,3.3272,0.54346,3.68529,1.25487,1.27616,3.6909,3.6853,30.5199,0.554982,4.60266,3.68539,0.249868,1.27648,3.83497,0.554982,0.0111627
0.14998,103091.508,3.6253,0.97241,,0.0,3.3634,0.54372,3.68799,1.26486,1.28707,3.69372,3.688,30.5865,0.55542,4.64033,3.68791,0.254704,1.28719,3.78111,0.555406,0.0111681
0.14998,103332,3.6271,0.98241,,0.0,3.3997,0.54399,3.69059,1.27486,1.29754,3.69654,3.6906,30.6532,0.555797,4.678,3.69047,0.260179,1.29764,3.68625,0.555833,0.0114445
0.14998,103572,3.6291,0.99241,,0.0,3.436,0.54429,3.69319,1.28486,1.30789,3.69936,3.6932,30.7199,0.556258,4.71567,3.69311,0.263579,1.30796,3.6213,0.556271,0.0117
0.14998,103812,3.6311,1.0024,,0.0,3.4723,0.54459,3.69569,1.29486,1.31838,3.70217,3.6957,30.7865,0.556709,4.75334,3.69578,0.26945,1.31815,3.58931,0.556716,0.0121264
0.14999,104051.506,3.6332,1.0124,,5.0456,3.5086,0.54494,3.69839,1.30486,1.32786,3.70499,3.6984,30.8532,0.557241,4.79101,3.6985,0.274416,1.32816,3.53775,0.557177,0.0123805
0.14998,104292,3.6352,1.0224,,0.0,3.5449,0.54521,3.70119,1.31486,1.33779,3.70781,3.7012,30.9199,0.557615,4.82868,3.70125,0.277517,1.33794,3.44178,0.557646,0.0123957
0.14998,104532,3.6371,1.0324,,0.0,3.5813,0.54549,3.70419,1.32486,1.34749,3.71063,3.7042,30.9865,0.558113,4.86635,3.70405,0.281242,1.34757,3.36653,0.558113,0.0124046
0.14999,104772,3.639,1.0424,,0.0,3.6177,0.54581,3.70679,1.33486,1.35721,3.71345,3.7068,31.0532,0.558553,4.90402,3.70691,0.289113,1.35706,3.3186,0.558582,0.0124296
0.14998,105012,3.641,1.0524,,0.0,3.6541,0.54608,3.70969,1.34486,1.36642,3.71626,3.7097,31.1199,0.559036,4.94169,3.70983,0.29544,1.36638,3.32538,0.559051,0.0124813
0.14998,105252,3.6431,1.0624,,5.0209,3.6905,0.54639,3.71279,1.35485,1.37547,3.71908,3.7128,31.1865,0.559529,4.97936,3.71279,0.299575,1.37561,3.27566,0.559529,0.0127917
0.14998,105492,3.6452,1.0724,,0.0,3.7269,0.54671,3.71589,1.36485,1.3849,3.7219,3.7159,31.2532,0.560015,5.01703,3.7158,0.302476,1.38478,3.21328,0.560014,0.0130157
0.14998,105732,3.6471,1.0824,,0.0,3.7634,0.54699,3.71888,1.37485,1.39402,3.72472,3.7189,31.3199,0.560501,5.0547,3.71884,0.305192,1.39384,3.17582,0.56051,0.0132429
0.14999,105972,3.649,1.0924,,0.0,3.7999,0.54731,3.72188,1.38485,1.40282,3.72754,3.7219,31.3865,0.560981,5.09237,3.72192,0.310158,1.40273,3.16148,0.561006,0.0131613
0.14998,106212,3.6511,1.1024,,0.0,3.8364,0.54759,3.72498,1.39485,1.41132,3.73035,3.725,31.4532,0.561488,5.13004,3.72504,0.315015,1.41154,3.11349,0.561504,0.0131722
0.14997,106452,3.6533,1.1124,,4.888,3.8729,0.54789,3.72818,1.40485,1.42038,3.73317,3.7282,31.5199,0.561997,5.16771,3.72822,0.318183,1.42032,3.09159,0.562002,0.0132419
0.14998,106692,3.6554,1.1224,,0.0,3.9094,0.54824,3.73139,1.41485,1.42924,3.73599,3.7314,31.5865,0.562533,5.20538,3.73141,0.321678,1.42905,3.07867,0.562501,0.0133758
0.14998,106932,3.6574,1.1324,,0.0,3.946,0.54854,3.73478,1.42485,1.43743,3.73881,3.7348,31.6532,0.563012,5.24305,3.73463,0.323499,1.43763,3.05635,0.563005,0.0132871
0.14999,107172,3.6595,1.1424,,,3.9826,0.54889,3.73798,1.43484,1.44621,3.74163,3.738,31.7199,0.563485,5.28072,3.73788,0.327261,1.4462,3.0314,0.563505,0.0132931
0.14999,107412,3.6616,1.1524,,,4.0192,0.5492,3.74108,1.44484,1.45502,3.74444,3.7411,31.7865,0.563974,5.31839,3.74118,0.329277,1.45478,3.01649,0.564004,0.0130566
0.14999,107652,3.6639,1.1624,0.0,0.0,4.0558,0.54955,3.74438,1.45484,1.46307,3.74726,3.7444,31.8532,0.564509,5.35606,3.74449,0.331553,1.46322,2.99647,0.564496,0.0131027
0.14999,107892,3.6661,1.1724,0.0,,4.0924,0.54988,3.74769,1.46484,1.47151,3.75008,3.7477,31.9199,0.565,5.39373,3.74781,0.332739,1.47165,3.0026,0.564992,0.0132757
0.14998,108132,3.6682,1.1824,0.0,4.5525,4.1291,0.55016,3.75118,1.47484,1.48039,3.7529,3.7512,31.9865,0.565498,5.4314,3.75112,0.332084,1.48018,3.01634,0.565495,0.0133042
0.14998,108372,3.6705,1.1924,0.0,0.0,4.1658,0.5505,3.75458,1.48484,1.48872,3.75572,3.7546,32.0532,0.565985,5.46907,3.75445,0.333085,1.48862,2.99939,0.565997,0.013336
0.14999,108612,3.6729,1.2024,0.22207,4.4388,4.2025,0.5509,3.75778,1.49484,1.49694,3.75853,3.7578,32.1199,0.566476,5.50674,3.75778,0.333294,1.49708,3.00788,0.566499,0.013296
0.14998,108852,3.6752,1.2124,0.0,0.0,4.2392,0.55121,3.76098,1.50484,1.5057,3.76135,3.761,32.1865,0.566988,5.54441,3.76112,0.333666,1.50557,3.00193,0.566992,0.0130009
0.14999,109091.508,3.6774,1.2224,0.0,,4.276,0.55157,3.76438,1.51484,1.51408,3.76417,3.7644,32.2532,0.56748,5.58208,3.76445,0.332832,1.51401,2.98603,0.567484,0.0129971
0.14998,109332,3.6798,1.2324,0.0,,4.3128,0.5519,3.76788,1.52483,1.52237,3.76699,3.7679,32.3199,0.567981,5.61975,3.76778,0.332969,1.52243,3.00545,0.567976,0.0131913
0.14998,109572,3.6823,1.2424,0.0,,4.3496,0.55227,3.77118,1.53483,1.53103,3.76981,3.7712,32.3865,0.568479,5.65742,3.7711,0.33225,1.53092,3.01003,0.568475,0.0132159
0.14999,109812,3.6849,1.2524,,,4.3864,0.5527,3.77438,1.54483,1.53935,3.77262,3.7744,32.4532,0.568978,5.69509,3.77442,0.332628,1.53943,3.00328,0.568967,0.0131397
0.14997,110052,3.6874,1.2624,,,4.4233,0.553,3.77768,1.55483,1.54753,3.77544,3.7777,32.5199,0.569485,5.73276,3.77776,0.331508,1.54785,3.01625,0.56946,0.0129763
0.14998,110291.506,3.6899,1.2724,,,4.4602,0.55341,3.78098,1.56483,1.55665,3.77826,3.781,32.5865,0.569947,5.77043,3.78105,0.330304,1.5564,3.01791,0.569956,0.0129566
0.14998,110532,3.6924,1.2824,0.25368,,4.4971,0.55379,3.78438,1.57483,1.56512,3.78108,3.7844,32.6532,0.57045,5.8081,3.78435,0.329808,1.56492,3.0261,0.570443,0.0131365
0.14999,110772,3.6951,1.2924,0.0,,4.534,0.55423,3.78771,1.58483,1.57332,3.7839,3.7877,32.7199,0.570965,5.84577,3.78765,0.331266,1.57342,3.03343,0.570939,0.0131466
0.14998,111012,3.6978,1.3024,0.0,3.7265,4.571,0.5546,3.79101,1.59483,1.58172,3.78671,3.791,32.7865,0.571398,5.88344,3.79097,0.330269,1.58198,3.02472,0.571442,0.0134242
0.14999,111251.508,3.7006,1.3124,0.0,0.0,4.6079,0.55505,3.79421,1.60483,1.59084,3.78953,3.7942,32.8532,0.571965,5.92111,3.79427,0.331595,1.59049,3.02084,0.571958,0.013844
0.14999,111492,3.7035,1.3224,,3.626,4.645,0.55549,3.79751,1.61482,1.59891,3.79235,3.7975,32.9199,0.57248,5.95878,3.79759,0.330744,1.599,3.01305,0.572477,0.0140463
0.14998,111732,3.7061,1.3324,,0.0,4.682,0.55584,3.80091,1.62482,1.60722,3.79517,3.8009,32.9865,0.573036,5.99645,3.8009,0.331669,1.60751,3.02706,0.573015,0.0144348
0.14998,111971.507,3.709,1.3424,,,4.7191,0.55628,3.80431,1.63482,1.61632,3.79799,3.8043,33.0532,0.573542,6.03412,3.80424,0.336012,1.61604,3.02007,0.573571,0.0148979
0.14998,112212,3.7121,1.3524,,,4.7562,0.55674,3.80751,1.64482,1.6245,3.8008,3.8075,33.1199,0.574148,6.07179,3.80761,0.340788,1.62451,3.00872,0.574143,0.0154487
0.15,112452,3.7152,1.3624,,0.0,4.7933,0.55728,3.81101,1.65482,1.63268,3.80362,3.811,33.1865,0.574755,6.10946,3.81103,0.343954,1.63297,2.98886,0.574742,0.016577
0.14998,112692,3.7181,1.3724,,3.2973,4.8305,0.55764,3.81441,1.66482,1.64158,3.80644,3.8144,33.2532,0.575402,6.14713,3.8145,0.349774,1.64135,2.94892,0.575386,0.0176229
0.14999,112932,3.7211,1.3824,,0.0,4.8677,0.55813,3.8182,1.67482,1.64935,3.80926,3.8182,33.3199,0.576074,6.18481,3.81803,0.358066,1.64962,2.9222,0.576076,0.0186389
0.14998,113171.506,3.7242,1.3924,0.0,,4.9049,0.55856,3.82181,1.68482,1.65793,3.81208,3.8218,33.3865,0.576788,6.22248,3.82167,0.370185,1.65784,2.91007,0.57679,0.0195355
0.14998,113411.507,3.7274,1.4024,0.0,,4.9421,0.55904,3.82541,1.69481,1.66617,3.81489,3.8254,33.4532,0.57757,6.26015,3.82544,0.383503,1.66593,2.83892,0.577536,0.0198899
0.14998,113652,3.7307,1.4124,0.0,,4.9794,0.55953,3.82931,1.70481,1.67358,3.81771,3.8293,33.5199,0.578264,6.29782,3.82937,0.402209,1.67388,2.79737,0.578274,0.0193109
0.14998,113892,3.7339,1.4224,,,5.0167,0.56001,3.83341,1.71481,1.68187,3.82053,3.8334,33.5865,0.579042,6.33549,3.83352,0.426646,1.68167,2.74085,0.578976,0.0180964
0.14998,114132,3.7371,1.4324,,,5.0541,0.56049,3.8379,1.72481,1.68932,3.82335,3.8379,33.6532,0.579649,6.37316,3.83794,0.456226,1.68929,2.65095,0.579625,0.0162895
0.14998,114372,3.7403,1.4424,,,5.0915,0.56097,3.8427,1.73481,1.69654,3.82617,3.8427,33.7199,0.580224,6.41083,3.84266,0.48639,1.69668,2.59068,0.580208,0.0145059
0.14998,114612,3.7436,1.4524,,,5.1289,0.56147,3.84751,1.74481,1.70401,3.82898,3.8475,33.7865,0.580715,6.4485,3.84765,0.509614,1.70382,2.49173,0.580725,0.0128884
0.14998,114852,3.7471,1.4624,,,5.1663,0.56199,3.8526,1.75481,1.71055,3.8318,3.8526,33.8532,0.581222,6.48617,3.85275,0.511626,1.7108,2.41344,0.58119,0.0118526
0.14999,115092,3.7504,1.4724,,0.0,5.2038,0.56252,3.8578,1.76481,1.71755,3.83462,3.8578,33.9199,0.581616,6.52384,3.85774,0.48826,1.71742,2.32222,0.581616,0.0107671
0.14998,115332,3.7537,1.4824,,,5.2413,0.56298,3.8626,1.77481,1.72375,3.83744,3.8626,33.9865,0.58201,6.56151,3.8624,0.446386,1.72377,2.20156,0.58201,0.0101447
0.14998,115571.508,3.7569,1.4924,,0.0,5.2789,0.56346,3.8668,1.7848,1.73008,3.84026,3.8668,34.0532,0.582394,6.59918,3.86662,0.394464,1.7299,2.11889,0.58239,0.00990773
0.14998,115811.506,3.7602,1.5024,,0.0,5.3165,0.56395,3.8704,1.7948,1.73558,3.84307,3.8704,34.1199,0.582748,6.63685,3.87036,0.350259,1.73575,2.04115,0.58276,0.00974878
0.14998,116051.506,3.7637,1.5124,,3.0003,5.3541,0.56448,3.8736,1.8048,1.7416,3.84589,3.8736,34.1865,0.58314,6.67452,3.8737,0.315235,1.74146,1.99921,0.583115,0.00932531
0.14998,116292,3.767,1.5224,,0.0,5.3917,0.56497,3.8766,1.8148,1.74696,3.84871,3.8766,34.2532,0.583476,6.71219,3.8767,0.288939,1.74697,1.95943,0.58346,0.00907419
0.14998,116532,3.7703,1.5324,,0.0,5.4294,0.56547,3.8796,1.8248,1.75256,3.85153,3.8796,34.3199,0.583754,6.74986,3.87949,0.27001,1.75251,1.93723,0.583799,0.00868686
0.14998,116772,3.7735,1.5424,,3.0056,5.4671,0.56595,3.8822,1.8348,1.75792,3.85434,3.8822,34.3865,0.584134,6.78753,3.88214,0.259518,1.75794,1.93371,0.584126,0.00864245
0.14998,117012,3.7769,1.5524,,0.0,5.5049,0.56646,3.8848,1.8448,1.76347,3.85716,3.8848,34.4532,0.584467,6.8252,3.8847,0.252582,1.76349,2.01198,0.584449,0.00876014
0.14998,117252,3.7803,1.5624,,0.0,5.5427,0.56697,3.8871,1.8548,1.76938,3.85998,3.8871,34.5199,0.584777,6.86287,3.88717,0.246106,1.76929,2.10895,0.584769,0.00841682
0.14998,117492,3.7836,1.5724,,3.0309,5.5805,0.56746,3.8895,1.8648,1.7753,3.8628,3.8895,34.5865,0.585065,6.90054,3.88959,0.236897,1.77544,2.27561,0.58509,0.00827167
0.14998,117732,3.787,1.5824,,0.0,5.6183,0.56797,3.892,1.87479,1.78234,3.86562,3.892,34.6532,0.585413,6.93821,3.89193,0.230622,1.78216,2.46755,0.585401,0.0082199
0.14999,117972,3.79,1.5923,,0.0,5.6562,0.56846,3.8943,1.88479,1.7896,3.86843,3.8943,34.7199,0.585734,6.97588,3.89422,0.22682,1.78945,2.72217,0.585698,0.0079697
0.14999,118212,3.7934,1.6023,,3.0351,5.6941,0.56897,3.8964,1.89479,1.79717,3.87125,3.8964,34.7865,0.585981,7.01355,3.89649,0.225128,1.79743,2.94572,0.585993,0.00769717
0.14999,118452,3.7968,1.6123,,0.0,5.7321,0.56948,3.8986,1.90479,1.80611,3.87407,3.8986,34.8532,0.58627,7.05122,3.89869,0.218702,1.8061,3.21584,0.586286,0.00760977
0.14998,118692,3.8001,1.6223,,0.0,5.77,0.56994,3.9008,1.91479,1.8157,3.87689,3.9008,34.9199,0.586594,7.08889,3.90086,0.213358,1.81555,3.46915,0.586584,0.00783264
0.14998,118932,3.8035,1.6323,,2.9848,5.8081,0.57045,3.903,1.92479,1.82547,3.87971,3.903,34.9865,0.586876,7.12656,3.90299,0.21073,1.82563,3.69893,0.586873,0.00818413
0.14999,119172,3.8067,1.6423,,0.0,5.8461,0.57097,3.9051,1.93479,1.83615,3.88252,3.9051,35.0532,0.587192,7.16423,3.90508,0.209605,1.83628,3.86498,0.58718,0.00804611
0.14997,119412,3.8101,1.6523,,0.0,5.8842,0.5714,3.9071,1.94479,1.84706,3.88534,3.9071,35.1199,0.587452,7.2019,3.90715,0.208196,1.84739,3.99655,0.587478,0.00775789
0.14998,119652,3.8137,1.6623,,2.9094,5.9223,0.57198,3.9093,1.95479,1.85859,3.88816,3.9093,35.1865,0.58783,7.23957,3.90922,0.205817,1.85891,4.12716,0.587781,0.00802522
0.14998,119892,3.8172,1.6723,,0.0,5.9605,0.5725,3.9114,1.96478,1.87054,3.89098,3.9114,35.2532,0.588087,7.27724,3.91128,0.202553,1.87072,4.27329,0.588084,0.00817796
0.14999,120132,3.8207,1.6823,,,5.9986,0.57307,3.9134,1.97478,1.883,3.8938,3.9134,35.3199,0.588365,7.31491,3.91331,0.203729,1.88286,4.3797,0.588395,0.00847666
0.14998,120372,3.8244,1.6923,0.0,,6.0369,0.57358,3.9153,1.98478,1.89557,3.89661,3.9153,35.3865,0.588729,7.35258,3.91535,0.20442,1.8954,4.49142,0.588714,0.00851425
0.14999,120612,3.8283,1.7023,0.0,2.5931,6.0751,0.57421,3.9173,1.99478,1.90785,3.89943,3.9173,35.4532,0.589069,7.39025,3.9174,0.205323,1.90826,4.59025,0.589032,0.00853962
0.14998,120852,3.8325,1.7123,0.39314,0.0,6.1134,0.5748,3.9194,2.00478,1.92084,3.90225,3.9194,35.5199,0.589408,7.42792,3.91947,0.208686,1.92134,4.68602,0.589363,0.00877367
0.14999,121092,3.8368,1.7223,0.0,,6.1518,0.57548,3.9217,2.01478,1.93467,3.90507,3.9217,35.5865,0.589721,7.46559,3.92158,0.214189,1.93468,4.78194,0.589701,0.00917625
0.14999,121332,3.8415,1.7323,0.0,0.0,6.1901,0.57619,3.92389,2.02478,1.94832,3.90789,3.9239,35.6532,0.590028,7.50326,3.92375,0.220497,1.94827,4.83254,0.590052,0.00932164
0.14999,121572,3.8462,1.7423,,0.0,6.2286,0.57689,3.92589,2.03478,1.9619,3.9107,3.9259,35.7199,0.590432,7.54093,3.92598,0.223658,1.96202,4.88949,0.590402,0.00956405
0.14999,121812,3.8514,1.7523,,0.0,6.2671,0.57767,3.92819,2.04477,1.97541,3.91352,3.9282,35.7865,0.590782,7.5786,3.92824,0.228504,1.97581,4.92836,0.590775,0.0100231
0.14998,122052,3.8566,1.7623,,0.0,6.3056,0.57841,3.9305,2.05477,1.989,3.91634,3.9305,35.8532,0.591154,7.61627,3.93057,0.235937,1.98962,4.87875,0.591163,0.0103155
0.14998,122292,3.8615,1.7723,,0.0,6.3442,0.57915,3.93309,2.06477,2.00279,3.91916,3.9331,35.9199,0.591543,7.65394,3.93295,0.243415,2.00325,4.77973,0.591557,0.0108725
0.14998,122532,3.8656,1.7823,,0.0,6.3828,0.57976,3.93549,2.07477,2.01653,3.92198,3.9355,35.9865,0.59194,7.69161,3.93542,0.251852,2.01654,4.64992,0.591968,0.0110545
0.14998,122772,3.8694,1.7923,,,6.4215,0.58033,3.93799,2.08477,2.02927,3.92479,3.938,36.0532,0.592405,7.72928,3.93799,0.260091,2.02948,4.53092,0.592392,0.0112565
0.14999,123012,3.8728,1.8023,0.38045,,6.4602,0.58088,3.94059,2.09477,2.04186,3.92761,3.9406,36.1199,0.592825,7.76695,3.94065,0.269547,2.04202,4.4062,0.592828,0.0116206
0.14999,123251.509,3.8759,1.8123,0.0,,6.4989,0.58135,3.94329,2.10477,2.05436,3.93043,3.9433,36.1865,0.593264,7.80462,3.94339,0.278725,2.05418,4.25347,0.593273,0.0122164
0.14998,123492,3.8789,1.8223,0.0,,6.5377,0.58176,3.94619,2.11477,2.06573,3.93325,3.9462,36.2532,0.593755,7.84229,3.94619,0.286084,2.06594,4.09136,0.593734,0.0124549
0.14999,123732,3.8815,1.8323,0.0,,6.5765,0.58219,3.94919,2.12477,2.07682,3.93607,3.9492,36.3199,0.594196,7.87996,3.9491,0.295626,2.07726,3.9404,0.594207,0.0127114
0.14998,123972,3.8839,1.8423,0.0,,6.6153,0.58251,3.95219,2.13476,2.08772,3.93888,3.9522,36.3865,0.594743,7.91763,3.95213,0.30756,2.08818,3.80086,0.594696,0.0130327
0.14998,124212,3.8865,1.8523,0.0,,6.6542,0.5829,3.95519,2.14476,2.09838,3.9417,3.9552,36.4532,0.595226,7.9553,3.95527,0.319692,2.09865,3.67586,0.595193,0.0134298
0.14999,124452,3.8891,1.8623,0.0,,6.6931,0.58333,3.95849,2.15476,2.10875,3.94452,3.9585,36.5199,0.595679,7.99297,3.9585,0.329077,2.10881,3.54584,0.59571,0.0139254
0.14999,124692,3.8914,1.8723,0.0,,6.7319,0.58367,3.96179,2.16476,2.1188,3.94734,3.9618,36.5865,0.59623,8.03064,3.96183,0.33719,2.11872,3.46179,0.596236,0.0142016
0.14998,124932,3.8936,1.8823,0.0,,6.7709,0.58396,3.96539,2.17476,2.12857,3.95016,3.9654,36.6532,0.596793,8.06831,3.96524,0.345661,2.12825,3.35526,0.596782,0.0145503
0.14999,125171.507,3.8959,1.8923,0.0,,6.8098,0.58435,3.96888,2.18476,2.13722,3.95297,3.9689,36.7199,0.597357,8.10599,3.96876,0.357566,2.13748,3.21649,0.597333,0.0148771
0.14997,125412,3.8981,1.9023,0.0,4.4479,6.8488,0.5846,3.97238,2.19476,2.14628,3.95579,3.9724,36.7865,0.597884,8.14366,3.97239,0.367069,2.14644,3.10416,0.597895,0.0149973
0.14998,125652,3.9004,1.9123,0.0,0.0,6.8878,0.58498,3.97598,2.20476,2.15519,3.95861,3.976,36.8532,0.598479,8.18133,3.97609,0.374977,2.15514,3.0319,0.598465,0.015163
0.14998,125892,3.9026,1.9223,0.22101,0.0,6.9268,0.58531,3.97989,2.21476,2.16347,3.96143,3.9799,36.9199,0.599038,8.219,3.97989,0.382685,2.16355,2.97533,0.599038,0.0153843
0.14998,126132,3.9045,1.9323,0.0,,6.9658,0.5856,3.98388,2.22475,2.17167,3.96425,3.9839,36.9865,0.599634,8.25667,3.98378,0.393933,2.17184,2.92299,0.599614,0.0153133
0.14998,126372,3.9066,1.9423,0.0,,7.0049,0.58591,3.98788,2.23475,2.18026,3.96706,3.9879,37.0532,0.6002,8.29434,3.98775,0.402059,2.17998,2.83285,0.600197,0.0156884
0.14998,126612,3.9088,1.9523,0.0,,7.0439,0.58624,3.99178,2.24475,2.18759,3.96988,3.9918,37.1199,0.600784,8.33201,3.99179,0.407932,2.18789,2.78133,0.600788,0.0156474
0.14998,126852,3.9108,1.9623,0.0,,7.083,0.58654,3.99578,2.25475,2.19555,3.9727,3.9958,37.1865,0.601433,8.36968,3.99589,0.410853,2.19562,2.72604,0.601382,0.0159417
0.14998,127092,3.9127,1.9723,0.20737,,7.1221,0.58683,4.00008,2.26475,2.20346,3.97552,4.0001,37.2532,0.602023,8.40735,4.00004,0.41503,2.20321,2.65692,0.601983,0.0160994
0.14999,127332,3.9148,1.9823,0.0,,7.1613,0.58718,4.00428,2.27475,2.21039,3.97834,4.0043,37.3199,0.602576,8.44502,4.0042,0.41898,2.21071,2.63971,0.602579,0.0156381
0.14998,127572,3.9168,1.9923,0.0,,7.2004,0.58744,4.00838,2.28475,2.21828,3.98115,4.0084,37.3865,0.603185,8.48269,4.00841,0.422831,2.21803,2.59165,0.603164,0.0152848
0.14999,127812,3.9191,2.0023,0.0,,7.2396,0.58783,4.01248,2.29475,2.22502,3.98397,4.0125,37.4532,0.603763,8.52036,4.01263,0.421213,2.22528,2.54014,0.603737,0.0152059
0.14998,128052,3.9212,2.0123,0.0,,7.2788,0.5881,4.01678,2.30475,2.23249,3.98679,4.0168,37.5199,0.604309,8.55803,4.01681,0.416454,2.23234,2.49271,0.604308,0.0149297
0.14998,128292,3.9231,2.0223,,4.7226,7.318,0.58839,4.02108,2.31474,2.23914,3.98961,4.0211,37.5865,0.604843,8.5957,4.02097,0.413673,2.23938,2.46031,0.604865,0.0148032
0.14998,128532,3.9253,2.0323,,0.0,7.3572,0.58872,4.02517,2.32474,2.24622,3.99243,4.0252,37.6532,0.60544,8.63337,4.0251,0.411795,2.24627,2.45068,0.605418,0.0145202
0.14999,128772,3.9277,2.0423,,0.0,7.3965,0.58912,4.02908,2.33474,2.25306,3.99524,4.0291,37.7199,0.605944,8.67104,4.02918,0.40574,2.25316,2.45894,0.605958,0.014129
0.14999,129012,3.9301,2.0523,,,7.4358,0.58948,4.03308,2.34474,2.26014,3.99806,4.0331,37.7865,0.606477,8.70871,4.03319,0.398541,2.26003,2.41547,0.60649,0.0140535
0.14997,129252,3.9324,2.0623,,,7.4751,0.58974,4.03728,2.35474,2.26697,4.00088,4.0373,37.8532,0.606987,8.74638,4.03713,0.388588,2.26682,2.40489,0.607014,0.0137593
0.14998,129492,3.9348,2.0723,,,7.5144,0.59014,4.04107,2.36474,2.27343,4.0037,4.0411,37.9199,0.60755,8.78405,4.04098,0.379571,2.27357,2.37508,0.607518,0.0132828
0.14998,129732,3.9373,2.0823,,0.0,7.5538,0.59052,4.04477,2.37474,2.28052,4.00652,4.0448,37.9865,0.608045,8.82172,4.04474,0.372928,2.28022,2.3722,0.608013,0.012802
0.14998,129972,3.9398,2.0923,,,7.5932,0.59089,4.04837,2.38474,2.28675,4.00933,4.0484,38.0532,0.608452,8.85939,4.04844,0.365067,2.28696,2.3788,0.608489,0.0122986
0.14998,130212,3.9427,2.1023,0.25741,0.0,7.6326,0.59133,4.05188,2.39473,2.29393,4.01215,4.0519,38.1199,0.608924,8.89706,4.05204,0.35414,2.29362,2.38258,0.608942,0.0118243
0.14999,130452,3.9456,2.1123,0.0,,7.672,0.5918,4.05548,2.40473,2.30027,4.01497,4.0555,38.1865,0.609416,8.93473,4.0555,0.34158,2.30034,2.37759,0.609383,0.011641
0.14998,130692,3.9485,2.1223,0.0,3.5019,7.7115,0.5922,4.05898,2.41473,2.30727,4.01779,4.059,38.2532,0.60981,8.9724,4.05884,0.327653,2.30704,2.39317,0.609813,0.0111456
0.14998,130932,3.9513,2.1323,0.0,0.0,7.751,0.59262,4.06217,2.42473,2.31356,4.02061,4.0622,38.3199,0.610193,9.01007,4.06207,0.314345,2.31387,2.41254,0.610213,0.0102703
0.14999,131172,3.9542,2.1423,0.0,,7.7905,0.59309,4.06508,2.43473,2.32086,4.02342,4.0651,38.3865,0.610597,9.04774,4.06517,0.302657,2.32065,2.42873,0.610584,0.00950882
0.14999,131412,3.9577,2.1523,0.0,,7.83,0.59362,4.06801,2.44473,2.32742,4.02624,4.068,38.4532,0.610931,9.08541,4.0681,0.285307,2.32755,2.46945,0.610934,0.00869167
0.14998,131652,3.9611,2.1623,0.0,,7.8696,0.59409,4.07071,2.45473,2.3347,4.02906,4.0707,38.5199,0.611269,9.12308,4.07084,0.264024,2.33447,2.44645,0.611252,0.00810637
0.14998,131891.506,3.9645,2.1723,0.0,,7.9093,0.5946,4.07341,2.46473,2.34124,4.03188,4.0734,38.5865,0.611568,9.16075,4.07336,0.238888,2.34144,2.4849,0.61154,0.00733824
0.14998,132132,3.9678,2.1823,0.0,,7.9489,0.59509,4.07571,2.47473,2.34854,4.0347,4.0757,38.6532,0.611756,9.19842,4.07563,0.2139,2.34852,2.53392,0.611793,0.00629658
0.14998,132372,3.9714,2.1923,0.0,,7.9886,0.59563,4.07761,2.48472,2.35556,4.03751,4.0776,38.7199,0.612014,9.23609,4.07763,0.186951,2.35568,2.5768,0.612007,0.0050642
0.14998,132612,3.9751,2.2023,0.0,0.0,8.0283,0.59619,4.0793,2.49472,2.36305,4.04033,4.0793,38.7865,0.612211,9.27376,4.07935,0.159821,2.36304,2.62351,0.612186,0.00426794
0.14998,132851.507,3.9791,2.2123,0.0,,8.0681,0.59679,4.0807,2.50472,2.37067,4.04315,4.0807,38.8532,0.612308,9.31143,4.08082,0.133326,2.37046,2.67286,0.612336,0.00380394
0.14999,133092,3.9829,2.2223,0.37877,0.0,8.1079,0.5974,4.0821,2.51472,2.37777,4.04597,4.0821,38.9199,0.612468,9.3491,4.08205,0.112984,2.37805,2.6866,0.612473,0.00342921
0.14999,133332,3.9867,2.2323,0.0,,8.1477,0.59797,4.0832,2.52472,2.38587,4.04879,4.0832,38.9865,0.612597,9.38677,4.08311,0.0996307,2.3857,2.76638,0.612597,0.00317506
0.14998,133572,3.9907,2.2423,0.0,0.0,8.1876,0.59853,4.0841,2.53472,2.39356,4.0516,4.0841,39.0532,0.612725,9.42444,4.08405,0.0902599,2.39355,2.8052,0.612713,0.00295716
0.14999,133812,3.995,2.2523,0.0,,8.2276,0.59921,4.0848,2.54472,2.40125,4.05442,4.0848,39.1199,0.612789,9.46211,4.08491,0.0835699,2.40155,2.87564,0.61282,0.00282944
0.14999,134052,3.9991,2.2623,0.0,2.4272,8.2675,0.59983,4.0857,2.55472,2.41012,4.05724,4.0857,39.1865,0.612929,9.49978,4.08573,0.0789702,2.40983,2.98988,0.612927,0.00279679
0.14997,134292,4.0032,2.2723,0.41405,2.4014,8.3075,0.60036,4.0866,2.56472,2.41858,4.06006,4.0866,39.2532,0.613055,9.53745,4.08651,0.0769215,2.41841,3.1002,0.613035,0.00281504
0.14998,134532,4.0073,2.2823,0.0,0.0,8.3476,0.60101,4.0874,2.57471,2.42691,4.06288,4.0874,39.3199,0.6131,9.57512,4.08727,0.0768423,2.42727,3.21473,0.613137,0.00288084
0.14998,134771.507,4.0115,2.2923,0.0,,8.3877,0.60164,4.0879,2.58471,2.43645,4.06569,4.0879,39.3865,0.613244,9.61279,4.08805,0.0762352,2.43645,3.33498,0.613243,0.00274108
0.14997,135012,4.0157,2.3023,,0.0,8.4278,0.60223,4.0887,2.59471,2.4463,4.06851,4.0887,39.4532,0.613365,9.65046,4.08881,0.0755893,2.44609,3.50716,0.613347,0.00275477
0.14999,135252,4.0201,2.3123,,,8.468,0.60297,4.0895,2.60471,2.45667,4.07133,4.0895,39.5199,0.613461,9.68813,4.08955,0.076282,2.45628,3.80077,0.613452,0.00268993
0.14999,135492,4.024,2.3223,,,8.5082,0.60356,4.0904,2.61471,2.46823,4.07415,4.0904,39.5865,0.613532,9.7258,4.09032,0.0777868,2.46734,4.23954,0.613559,0.00300786
0.14997,135732,4.0281,2.3323,,2.429,8.5484,0.60409,4.0912,2.62471,2.48153,4.07697,4.0912,39.6532,0.613659,9.76347,4.09112,0.0812814,2.48076,5.22707,0.613672,0.00299452
0.14998,135972,4.0323,2.3423,,0.0,8.5887,0.60476,4.092,2.63471,2.49712,4.07978,4.092,39.7199,0.613781,9.80114,4.09194,0.0836752,2.49831,7.03378,0.613789,0.00310467
0.14998,136212,4.0363,2.3523,,,8.6291,0.60536,4.0927,2.64471,2.52033,4.0826,4.0927,39.7865,0.613912,9.83881,4.09278,0.084756,2.52205,9.55568,0.613905,0.00312861
0.14998,136452,4.04,2.3623,,0.0,8.6695,0.60592,4.0935,2.65471,2.54994,4.08542,4.0935,39.8532,0.614025,9.87648,4.09364,0.0860451,2.55198,11.8302,0.614019,0.00313056
0.14998,136692,4.0438,2.3723,,2.6088,8.7099,0.60649,4.0946,2.6647,2.58681,4.08824,4.0946,39.9199,0.614124,9.91415,,,,,,
0.14998,136932,4.0474,2.3823,,0.0,8.7503,0.60703,4.0955,2.6747,2.62379,4.09106,4.0955,39.9865,0.614281,9.95182,,,,,,
0.14999,137172,4.0513,2.3923,,,8.7908,0.60765,4.0963,2.6847,2.65811,4.09387,4.0963,40.0532,0.61444,9.98949,,,,,,
0.14998,137412,4.0548,2.4023,0.0,,8.8313,0.60814,4.0973,2.6947,2.68666,4.09669,4.0973,40.1199,0.61452,10.0272,,,,,,
0.14998,137652,4.0582,2.4123,0.0,,8.8719,0.60865,,,,,,,,,,,,,,
0.14999,137891.508,4.0612,2.4223,0.0,,8.9125,0.60914,,,,,,,,,,,,,,
0.14998,138132,4.0643,2.4323,0.0,,8.9531,0.60956,,,,,,,,,,,,,,
0.14998,138372,4.0673,2.4423,0.0,,8.9938,0.61001,,,,,,,,,,,,,,
0.14999,138612,4.0703,2.4522,0.0,,9.0344,0.6105,,,,,,,,,,,,,,
0.14997,138852,4.0729,2.4622,0.28463,0.0,9.0752,0.61081,,,,,,,,,,,,,,
0.14998,139092,4.075,2.4722,0.0,,9.1159,0.61117,,,,,,,,,,,,,,
0.14999,139332,4.0771,2.4822,0.0,,9.1567,0.61152,,,,,,,,,,,,,,
0.14998,139572,4.0789,2.4922,0.0,,9.1974,0.61175,,,,,,,,,,,,,,
0.14998,139812,4.0806,2.5022,0.0,,9.2382,0.61201,,,,,,,,,,,,,,
0.14998,140052,4.0818,2.5122,0.0,,9.279,0.61219,,,,,,,,,,,,,,
0.14999,140292,4.0829,2.5222,,,9.3198,0.61239,,,,,,,,,,,,,,
0.14999,140532,4.0837,2.5322,,0.0,9.3607,0.61251,,,,,,,,,,,,,,
0.14998,140772,4.0846,2.5422,,0.0,9.4015,0.61261,,,,,,,,,,,,,,
0.14999,141012,4.0856,2.5522,,0.0,9.4424,0.6128,,,,,,,,,,,,,,
0.14999,141252,4.0863,2.5622,,0.0,9.4832,0.6129,,,,,,,,,,,,,,
0.14998,141492,4.087,2.5722,,0.0,9.5241,0.61297,,,,,,,,,,,,,,
0.14999,141732,4.0878,2.5822,,0.0,9.5649,0.61313,,,,,,,,,,,,,,
0.14998,141972,4.0886,2.5922,,0.0,9.6058,0.61321,,,,,,,,,,,,,,
0.14999,142212,4.0895,2.6022,,0.0,9.6467,0.61338,,,,,,,,,,,,,,
0.14998,142452,4.0903,2.6122,,0.0,9.6876,0.61346,,,,,,,,,,,,,,
0.14998,142692,4.0908,2.6222,,0.0,9.7285,0.61354,,,,,,,,,,,,,,
0.14999,142932,4.0916,2.6322,,0.0,9.7694,0.6137,,,,,,,,,,,,,,
0.14998,143172,4.0925,2.6422,0.081771,0.0,9.8103,0.61379,,,,,,,,,,,,,,
0.14998,143412,4.0935,2.6522,0.0,,9.8513,0.61394,,,,,,,,,,,,,,
0.14999,143652,4.0944,2.6622,0.0,,9.8922,0.61412,,,,,,,,,,,,,,
0.14998,143892,4.0952,2.6722,0.0,,9.9331,0.6142,,,,,,,,,,,,,,
0.14998,144132,4.0961,2.6822,0.0,,9.9741,0.61433,,,,,,,,,,,,,,
0.14998,144372,4.0973,2.6922,0.0,,10.015,0.61451,,,,,,,,,,,,,,
,,,,,,,,3.4084,0.25248,0.25248,3.4084,3.4084,23.8365,0.51123,0.82622,,,,,,
,,,,,,,,3.4111,0.262479,0.262901,3.41122,3.4111,23.9032,0.511676,0.86389,,,,,,
,,,,,,,,3.4137,0.272478,0.27368,3.41404,3.4137,23.9699,0.512112,0.90156,,,,,,
,,,,,,,,3.4162,0.282477,0.284815,3.41685,3.4162,24.0365,0.512527,0.939231,,,,,,
,,,,,,,,3.419,0.292475,0.295951,3.41967,3.419,24.1032,0.512926,0.976901,3.41887,0.252579,0.295584,3.93129,0.512945,0.0111725
,,,,,,,,3.4215,0.302474,0.306929,3.42249,3.4215,24.1699,0.513327,1.01457,3.42141,0.252942,0.306744,3.95264,0.513361,0.0112002
,,,,,,,,3.4239,0.312473,0.317509,3.42531,3.4239,24.2365,0.513797,1.05224,3.42393,0.254085,0.317927,3.93741,0.51378,0.0112148
,,,,,,,,3.4264,0.322472,0.328411,3.42813,3.4264,24.3032,0.514233,1.08991,3.42647,0.255175,0.328976,3.89225,0.514203,0.0113044
,,,,,,,,3.429,0.332471,0.33958,3.43094,3.429,24.3699,0.514658,1.12758,3.42904,0.258014,0.33977,3.80469,0.514634,0.0115174
,,,,,,,,3.4318,0.34247,0.350419,3.43376,3.4318,24.4365,0.515105,1.16525,3.43165,0.264669,0.350281,3.68138,0.515077,0.0118661
,,,,,,,,3.4345,0.352469,0.360844,3.43658,3.4345,24.5032,0.515533,1.20292,3.43434,0.274091,0.360476,3.53724,0.51553,0.0124071
,,,,,,,,3.4371,0.362467,0.370588,3.4394,3.4371,24.5699,0.515979,1.24059,3.43713,0.285678,0.370278,3.42039,0.516012,0.0128605
,,,,,,,,3.44,0.372466,0.379669,3.44222,3.44,24.6365,0.516514,1.27826,3.44005,0.295499,0.379716,3.27933,0.516507,0.0134485
,,,,,,,,3.443,0.382465,0.388675,3.44503,3.443,24.7032,0.516995,1.31593,3.44306,0.307353,0.388816,3.15054,0.517026,0.014197
,,,,,,,,3.4463,0.392464,0.397849,3.44785,3.4463,24.7699,0.517583,1.3536,3.4462,0.321943,0.39753,3.03617,0.517572,0.014935
,,,,,,,,3.4496,0.402463,0.405933,3.45067,3.4496,24.8365,0.518172,1.39127,3.44951,0.338314,0.405884,2.90992,0.518147,0.0156838
,,,,,,,,3.453,0.412462,0.413825,3.45349,3.453,24.9032,0.518806,1.42894,3.45296,0.353543,0.413964,2.82161,0.518747,0.0162445
,,,,,,,,3.4565,0.422461,0.42193,3.45631,3.4565,24.9699,0.51939,1.46661,3.45656,0.366842,0.421778,2.72398,0.51937,0.0167754
,,,,,,,,3.4602,0.432459,0.429202,3.45912,3.4602,25.0365,0.520013,1.50428,3.46028,0.376542,0.429404,2.6708,0.520017,0.0172128
,,,,,,,,3.4642,0.442458,0.437022,3.46194,3.4642,25.1032,0.520637,1.54195,3.46411,0.387228,0.436792,2.61696,0.520663,0.0172512
,,,,,,,,3.468,0.452457,0.444014,3.46476,3.468,25.1699,0.52132,1.57962,3.46804,0.3968,0.444153,2.57636,0.521313,0.0172455
,,,,,,,,3.4719,0.462456,0.451404,3.46758,3.4719,25.2365,0.521947,1.61729,3.47201,0.400781,0.451327,2.53085,0.521958,0.0171592
,,,,,,,,3.476,0.472455,0.458383,3.4704,3.476,25.3032,0.522618,1.65496,3.47602,0.40094,0.458427,2.51526,0.5226,0.0168756
,,,,,,,,3.4801,0.482454,0.465445,3.47321,3.4801,25.3699,0.523252,1.69263,3.48002,0.397843,0.46545,2.47826,0.52323,0.0167239
,,,,,,,,3.484,0.492453,0.472539,3.47603,3.484,25.4365,0.523879,1.7303,3.48396,0.391931,0.472471,2.49261,0.523862,0.0168312
,,,,,,,,3.4878,0.502451,0.479391,3.47885,3.4878,25.5032,0.524497,1.76797,3.48785,0.386974,0.479492,2.4942,0.524501,0.0169088
,,,,,,,,3.4917,0.51245,0.486733,3.48167,3.4917,25.5699,0.525151,1.80565,3.49173,0.389729,0.486571,2.5171,0.525145,0.0171847
,,,,,,,,3.4957,0.522449,0.493563,3.48449,3.4957,25.6365,0.525812,1.84332,3.49566,0.395574,0.493701,2.54542,0.525798,0.0175183
,,,,,,,,3.49969,0.532448,0.50108,3.4873,3.4997,25.7032,0.526488,1.88099,3.49966,0.405153,0.500927,2.58442,0.526466,0.017966
,,,,,,,,3.50369,0.542447,0.508075,3.49012,3.5037,25.7699,0.527129,1.91866,3.50377,0.418464,0.508277,2.63412,0.527153,0.0185278