File: Data/monotonic_segments/Cycle 520_discharge.csv
Current(A),Test_Time(s),Voltage(V),Discharge_Capacity(Ah),dV/dQ(V/Ah),dQ/dV(Ah/V),Discharge_Energy(Wh),Power(W)
-0.14999,12257.959,4.0726,0.31986,0.0,,1.3107,-0.61085
-0.14999,12377.959,4.0721,0.32485,,12.407,1.3311,-0.61077
-0.14998,12497.959,4.0716,0.32985,,0.0,1.3514,-0.61066
-0.14999,12617.959,4.0714,0.33485,,0.0,1.3718,-0.61067
-0.15,12737.96,4.0708,0.33985,,0.0,1.3921,-0.61062
-0.14999,12857.959,4.0705,0.34485,,0.0,1.4125,-0.61053
-0.14999,12977.959,4.0702,0.34984,,0.0,1.4328,-0.61049
-0.15,13097.959,4.0696,0.35484,,0.0,1.4532,-0.61044
-0.15,13217.959,4.0694,0.35984,,0.0,1.4735,-0.61041
-0.14999,13337.959,4.0688,0.36484,,0.0,1.4938,-0.61028
-0.14998,13457.959,4.0683,0.36984,,0.0,1.5142,-0.61016
-0.14999,13577.959,4.068,0.37483,,0.0,1.5345,-0.61016
-0.15,13697.959,4.0673,0.37983,,0.0,1.5548,-0.6101
-0.14999,13817.96,4.0669,0.38483,,,1.5752,-0.60999
-0.15,13937.959,4.0662,0.38983,,,1.5955,-0.60993
-0.15,14057.959,4.0656,0.39483,,,1.6158,-0.60984
-0.14999,14177.96,4.065,0.39982,,,1.6361,-0.60971
-0.15001,14297.96,4.0641,0.40482,,,1.6564,-0.60966
-0.14999,14417.959,4.0635,0.40982,,,1.6768,-0.60948
-0.15,14537.959,4.0624,0.41482,,,1.6971,-0.60936
-0.15,14657.96,4.0616,0.41982,,,1.7174,-0.60924
-0.14999,14777.959,4.0607,0.42481,,,1.7377,-0.60906
-0.14999,14897.959,4.0595,0.42981,,,1.758,-0.60888
-0.15001,15017.96,4.0586,0.43481,,,1.7782,-0.60883
-0.14999,15137.96,4.0573,0.43981,,,1.7985,-0.60855
-0.15,15257.96,4.0562,0.4448,,,1.8188,-0.60843
-0.14999,15377.959,4.055,0.4498,,,1.8391,-0.60821
-0.15,15497.96,4.0536,0.4548,,,1.8593,-0.60804
-0.15,15617.959,4.0525,0.4598,,,1.8796,-0.60788
-0.15001,15737.959,4.0509,0.4648,,,1.8998,-0.60768
-0.14999,15857.96,4.0498,0.46979,,,1.9201,-0.60743
-0.14999,15977.959,4.0482,0.47479,,,1.9403,-0.60719
-0.14999,16097.959,4.0467,0.47979,,3.5616,1.9605,-0.60696
-0.14999,16217.96,4.0454,0.48479,,0.0,1.9808,-0.60677
-0.15,16337.958,4.0437,0.48979,,0.0,2.001,-0.60656
-0.15,16457.959,4.0423,0.49478,0.29031,0.0,2.0212,-0.60635
-0.15,16577.959,4.0408,0.49978,0.0,,2.0414,-0.60612
-0.14999,16697.959,4.039,0.50478,0.0,,2.0616,-0.60581
-0.14999,16817.959,4.0376,0.50978,0.0,,2.0818,-0.6056
-0.14999,16937.959,4.0357,0.51478,0.0,,2.1019,-0.60531
-0.15001,17057.959,4.0342,0.51978,0.0,,2.1221,-0.60517
-0.15,17177.959,4.0324,0.52477,,,2.1423,-0.60486
-0.15,17297.959,4.0306,0.52977,,,2.1624,-0.60459
-0.14999,17417.96,4.0291,0.53477,,,2.1826,-0.60432
-0.15,17537.959,4.0271,0.53977,,,2.2027,-0.60407
-0.14997,17657.96,4.0255,0.54477,,,2.2228,-0.6037
-0.15,17777.959,4.0236,0.54977,,,2.2429,-0.60354
-0.14999,17897.96,4.0216,0.55476,0.35447,2.7375,2.263,-0.6032
-0.14999,18017.959,4.0199,0.55976,0.0,0.0,2.2831,-0.60294
-0.14999,18137.959,4.0178,0.56476,0.0,0.0,2.3032,-0.60263
-0.15,18257.959,4.0161,0.56976,0.0,,2.3233,-0.60242
-0.15,18377.959,4.0142,0.57476,0.0,,2.3434,-0.60213
-0.15,18497.959,4.012,0.57976,0.38035,,2.3634,-0.6018
-0.14999,18617.96,4.0103,0.58475,0.0,,2.3835,-0.6015
-0.15,18737.959,4.008,0.58975,0.0,,2.4035,-0.6012
-0.14999,18857.959,4.0062,0.59475,0.0,2.5029,2.4235,-0.60089
-0.14999,18977.959,4.0042,0.59975,0.0,0.0,2.4436,-0.60059
-0.15,19097.96,4.002,0.60475,0.40113,0.0,2.4636,-0.6003
-0.14999,19217.959,4.0001,0.60975,0.0,,2.4836,-0.59997
-0.14999,19337.96,3.9979,0.61474,0.0,,2.5036,-0.59965
-0.14999,19457.959,3.996,0.61974,0.0,,2.5235,-0.59936
-0.15,19577.959,3.9937,0.62474,0.0,,2.5435,-0.59906
-0.14998,19697.959,3.9916,0.62974,0.41559,2.4236,2.5635,-0.59866
-0.15,19817.96,3.9898,0.63474,0.0,0.0,2.5834,-0.59847
-0.15001,19937.96,3.9874,0.63973,0.0,0.0,2.6033,-0.59815
-0.14999,20057.96,3.9856,0.64473,0.0,,2.6233,-0.5978
-0.15,20177.959,3.9834,0.64973,0.0,,2.6432,-0.59751
-0.14999,20297.958,3.9814,0.65473,0.41457,2.4263,2.6631,-0.59717
-0.14999,20417.959,3.9794,0.65973,0.0,0.0,2.683,-0.59687
-0.15,20537.96,3.9772,0.66473,0.0,0.0,2.7029,-0.59658
-0.15,20657.96,3.9754,0.66972,0.0,,2.7227,-0.59631
-0.14999,20777.959,3.9732,0.67472,0.0,,2.7426,-0.59594
-0.15,20897.959,3.9714,0.67972,0.40431,2.4902,2.7625,-0.59571
-0.15,21017.96,3.9693,0.68472,0.0,0.0,2.7823,-0.5954
-0.15,21137.96,3.9673,0.68972,0.0,0.0,2.8021,-0.5951
-0.15,21257.959,3.9655,0.69471,0.0,,2.822,-0.59483
-0.15,21377.959,3.9634,0.69971,0.0,,2.8418,-0.59451
-0.14999,21497.959,3.9617,0.70471,0.38964,2.6093,2.8616,-0.59422
-0.14999,21617.959,3.9597,0.70971,0.0,0.0,2.8814,-0.59392
-0.14999,21737.96,3.9577,0.71471,0.0,0.0,2.9012,-0.59362
-0.14999,21857.959,3.9561,0.71971,0.0,,2.9209,-0.59338
-0.14999,21977.96,3.9541,0.7247,0.0,,2.9407,-0.59308
-0.14999,22097.958,3.9525,0.7297,0.0,,2.9605,-0.59284
-0.15,22217.959,3.9505,0.7347,,,2.9802,-0.59258
-0.15,22337.959,3.9488,0.7397,,,3.0,-0.59232
-0.14999,22457.96,3.9473,0.7447,,,3.0197,-0.59206
-0.14999,22577.96,3.9453,0.7497,,,3.0394,-0.59176
-0.15,22697.959,3.9439,0.75469,,,3.0591,-0.59159
-0.14999,22817.959,3.9421,0.75969,0.34404,,3.0789,-0.59128
-0.14998,22937.96,3.9404,0.76469,0.0,,3.0986,-0.59098
-0.14999,23057.96,3.9389,0.76969,0.0,,3.1182,-0.5908
-0.15,23177.959,3.9372,0.77469,0.0,,3.1379,-0.59058
-0.14999,23297.959,3.9357,0.77969,0.0,,3.1576,-0.59032
-0.15,23417.959,3.9342,0.78469,0.0,,3.1773,-0.59013
-0.15,23537.959,3.9325,0.78968,0.0,,3.1969,-0.58988
-0.15,23657.96,3.931,0.79468,,,3.2166,-0.58965
-0.14999,23777.959,3.9297,0.79968,,,3.2362,-0.58942
-0.15,23897.959,3.9281,0.80468,,,3.2559,-0.58922
-0.15,24017.96,3.9268,0.80968,,3.3921,3.2755,-0.58902
-0.15,24137.96,3.9253,0.81468,,0.0,3.2951,-0.5888
-0.14999,24257.959,3.9238,0.81967,,0.0,3.3147,-0.58853
-0.14999,24377.959,3.9226,0.82467,,0.0,3.3344,-0.58835
-0.15,24497.96,3.921,0.82967,,,3.354,-0.58815
-0.14999,24617.959,3.9199,0.83467,,,3.3736,-0.58795
-0.15,24737.959,3.9186,0.83967,,,3.3931,-0.58779
-0.14999,24857.959,3.917,0.84467,,,3.4127,-0.58751
-0.14999,24977.96,3.9159,0.84967,,,3.4323,-0.58735
-0.15,25097.96,3.9144,0.85466,,,3.4519,-0.58716
-0.14998,25217.959,3.9133,0.85966,,,3.4714,-0.58692
-0.14998,25337.959,3.9121,0.86466,0.2614,,3.491,-0.58674
-0.14999,25457.959,3.9107,0.86966,0.0,,3.5105,-0.58657
-0.15,25577.959,3.9096,0.87466,0.0,,3.5301,-0.58644
-0.15,25697.96,3.9082,0.87966,0.0,,3.5496,-0.58623
-0.15,25817.959,3.907,0.88466,0.0,,3.5692,-0.58605
-0.14998,25937.959,3.906,0.88965,0.0,,3.5887,-0.58582
-0.14999,26057.96,3.9046,0.89465,0.0,,3.6082,-0.58565
-0.14999,26177.959,3.9036,0.89965,0.0,,3.6277,-0.5855
-0.14999,26297.959,3.9021,0.90465,0.0,,3.6472,-0.58528
-0.14999,26417.96,3.901,0.90965,,,3.6667,-0.58511
-0.14999,26537.96,3.8999,0.91465,,,3.6862,-0.58495
-0.15001,26657.959,3.8985,0.91965,,,3.7057,-0.58481
-0.14999,26777.959,3.8975,0.92464,,,3.7252,-0.58459
-0.15,26897.96,3.8961,0.92964,,,3.7447,-0.58442
-0.14999,27017.959,3.8947,0.93464,,,3.7642,-0.58417
-0.14999,27137.96,3.8937,0.93964,,,3.7836,-0.58402
-0.15,27257.96,3.8922,0.94464,,,3.8031,-0.58383
-0.14999,27377.96,3.8911,0.94964,,,3.8225,-0.58363
-0.15,27497.96,3.8895,0.95463,,,3.842,-0.58343
-0.15,27617.959,3.8883,0.95963,,,3.8614,-0.58325
-0.15,27737.959,3.887,0.96463,,,3.8808,-0.58305
-0.15,27857.96,3.8854,0.96963,,,3.9003,-0.58281
-0.15,27977.96,3.8842,0.97463,,,3.9197,-0.58263
-0.15,28097.959,3.8827,0.97963,,,3.9391,-0.58241
-0.14999,28217.959,3.881,0.98463,,,3.9585,-0.58211
-0.14999,28337.959,3.8796,0.98962,,,3.9779,-0.5819
-0.15,28457.959,3.8779,0.99462,,,3.9973,-0.58169
-0.15,28577.96,3.8762,0.99962,,3.1231,4.0167,-0.58143
-0.15,28697.959,3.8748,1.0046,,0.0,4.036,-0.58122
-0.14999,28817.959,3.8729,1.0096,,0.0,4.0554,-0.5809
-0.15,28937.959,3.8711,1.0146,,3.0315,4.0748,-0.58067
-0.15,29057.96,3.8695,1.0196,,0.0,4.0941,-0.58043
-0.15,29177.959,3.8675,1.0246,,0.0,4.1134,-0.58013
-0.14998,29297.959,3.8659,1.0296,,,4.1328,-0.57981
-0.15,29417.959,3.8638,1.0346,,,4.1521,-0.57957
-0.14999,29537.959,3.862,1.0396,0.36707,,4.1714,-0.57926
-0.14999,29657.959,3.8601,1.0446,0.0,,4.1907,-0.57898
-0.15,29777.959,3.8581,1.0496,0.0,,4.21,-0.57872
-0.14999,29897.959,3.8563,1.0546,0.0,2.5864,4.2293,-0.57841
-0.15,30017.959,3.8542,1.0596,0.0,0.0,4.2485,-0.57813
-0.14999,30137.959,3.8523,1.0646,0.0,0.0,4.2678,-0.57781
-0.14999,30257.959,3.8502,1.0696,,,4.287,-0.57749
-0.14999,30377.959,3.8483,1.0746,,,4.3063,-0.57721
-0.14999,30497.96,3.8464,1.0796,,2.5336,4.3255,-0.57692
-0.15,30617.959,3.8443,1.0846,,0.0,4.3447,-0.57665
-0.14999,30737.96,3.8425,1.0896,,0.0,4.3639,-0.57634
-0.14999,30857.959,3.8404,1.0946,,,4.3831,-0.57602
-0.14999,30977.959,3.8385,1.0996,,,4.4023,-0.57574
-0.14999,31097.96,3.8368,1.1046,,2.6173,4.4215,-0.57548
-0.15,31217.959,3.8346,1.1096,,0.0,4.4407,-0.57519
-0.15,31337.959,3.8329,1.1146,,0.0,4.4598,-0.57494
-0.14999,31457.96,3.8309,1.1196,,2.6344,4.479,-0.5746
-0.15,31577.96,3.8292,1.1246,,0.0,4.4981,-0.57438
-0.15,31697.96,3.8273,1.1296,,0.0,4.5173,-0.5741
-0.14999,31817.959,3.8253,1.1346,,,4.5364,-0.57376
-0.14999,31937.959,3.8237,1.1396,,,4.5555,-0.57352
-0.15,32057.959,3.8217,1.1446,0.36973,2.7154,4.5746,-0.57326
-0.15001,32177.959,3.82,1.1496,0.0,0.0,4.5937,-0.57304
-0.14999,32297.96,3.818,1.1546,0.0,0.0,4.6128,-0.57266
-0.15,32417.959,3.8163,1.1596,0.0,2.764,4.6319,-0.57245
-0.14999,32537.959,3.8146,1.1646,0.0,0.0,4.651,-0.57215
-0.15,32657.959,3.8126,1.1696,0.0,0.0,4.67,-0.57189
-0.14999,32777.96,3.8108,1.1746,,2.7808,4.6891,-0.57158
-0.15,32897.959,3.8093,1.1796,,0.0,4.7081,-0.5714
-0.14999,33017.96,3.8073,1.1846,,0.0,4.7272,-0.57106
-0.15,33137.959,3.8057,1.1896,,,4.7462,-0.57086
-0.14998,33257.959,3.804,1.1946,,,4.7652,-0.57052
-0.14998,33377.959,3.802,1.1996,0.35667,,4.7842,-0.57022
-0.15,33497.959,3.8005,1.2046,0.0,,4.8032,-0.57008
-0.14999,33617.959,3.7985,1.2096,0.0,,4.8222,-0.56974
-0.14999,33737.959,3.797,1.2145,0.0,,4.8412,-0.56951
-0.14999,33857.959,3.7953,1.2195,0.0,,4.8602,-0.56926
-0.14999,33977.96,3.7934,1.2245,0.0,,4.8791,-0.56897
-0.15,34097.959,3.7919,1.2295,0.34346,,4.8981,-0.56879
-0.15,34217.96,3.79,1.2345,0.0,,4.917,-0.5685
-0.14999,34337.96,3.7884,1.2395,0.0,,4.936,-0.56822
-0.14999,34457.96,3.7867,1.2445,0.0,2.9432,4.9549,-0.56797
-0.14999,34577.959,3.785,1.2495,0.0,0.0,4.9738,-0.56771
-0.14999,34697.959,3.7834,1.2545,0.0,0.0,4.9927,-0.56747
-0.14999,34817.96,3.7815,1.2595,0.33673,2.9673,5.0116,-0.56719
-0.14999,34937.959,3.7801,1.2645,0.0,0.0,5.0305,-0.56698
-0.14999,35057.959,3.7784,1.2695,0.0,0.0,5.0494,-0.56672
-0.14999,35177.96,3.7765,1.2745,0.0,2.9872,5.0683,-0.56644
-0.15001,35297.96,3.7751,1.2795,0.0,0.0,5.0872,-0.5663
-0.15,35417.959,3.7733,1.2845,0.0,0.0,5.106,-0.566
-0.14999,35537.959,3.7716,1.2895,0.33299,3.0319,5.1249,-0.5657
-0.15,35657.96,3.7701,1.2945,0.0,0.0,5.1438,-0.56552
-0.14999,35777.959,3.7683,1.2995,0.0,0.0,5.1626,-0.56521
-0.15,35897.959,3.7668,1.3045,0.0,3.0066,5.1814,-0.56502
-0.14999,36017.959,3.765,1.3095,0.0,0.0,5.2002,-0.56471
-0.14999,36137.959,3.7634,1.3145,0.0,0.0,5.2191,-0.56447
-0.15,36257.959,3.7619,1.3195,0.33024,,5.2379,-0.56429
-0.14999,36377.959,3.76,1.3245,0.0,,5.2567,-0.56396
-0.15,36497.959,3.7584,1.3295,0.0,,5.2755,-0.56376
-0.14999,36617.959,3.7569,1.3345,0.0,,5.2942,-0.5635
-0.14998,36737.96,3.7551,1.3395,0.0,,5.313,-0.56319
-0.15,36857.959,3.7534,1.3445,0.0,,5.3318,-0.56301
-0.14999,36977.959,3.752,1.3495,0.33133,,5.3505,-0.56276
-0.14999,37097.96,3.7501,1.3545,0.0,,5.3693,-0.56248
-0.14999,37217.96,3.7486,1.3595,0.0,,5.388,-0.56225
-0.15,37337.96,3.7467,1.3645,0.0,,5.4067,-0.56201
-0.14999,37457.959,3.7452,1.3695,0.0,,5.4255,-0.56174
-0.15,37577.96,3.7435,1.3745,0.0,,5.4442,-0.56153
-0.14998,37697.96,3.7417,1.3795,0.33526,,5.4629,-0.56118
-0.14999,37817.96,3.7402,1.3845,0.0,,5.4816,-0.56099
-0.15,37937.959,3.7382,1.3895,0.0,,5.5003,-0.56073
-0.14999,38057.959,3.7367,1.3945,0.0,,5.519,-0.56047
-0.14998,38177.959,3.735,1.3995,0.0,,5.5376,-0.56018
-0.14999,38297.959,3.7332,1.4045,0.0,,5.5563,-0.55994
-0.14999,38417.958,3.7316,1.4095,0.34063,2.9356,5.575,-0.5597
-0.14999,38537.96,3.7297,1.4145,0.0,0.0,5.5936,-0.55942
-0.14999,38657.959,3.7281,1.4195,0.0,0.0,5.6122,-0.55918
-0.14998,38777.959,3.7264,1.4245,0.0,2.9417,5.6309,-0.55889
-0.14999,38897.959,3.7246,1.4295,0.0,0.0,5.6495,-0.55865
-0.14999,39017.959,3.7231,1.4345,0.0,0.0,5.6681,-0.55843
-0.14998,39137.959,3.7212,1.4395,0.34221,2.9232,5.6867,-0.55811
-0.14999,39257.96,3.7197,1.4445,0.0,0.0,5.7053,-0.55792
-0.14999,39377.959,3.7179,1.4495,0.0,0.0,5.7239,-0.55765
-0.15,39497.959,3.7161,1.4545,0.0,2.9382,5.7425,-0.55742
-0.15,39617.959,3.7146,1.4595,0.0,0.0,5.761,-0.55719
-0.15,39737.959,3.7128,1.4645,0.0,0.0,5.7796,-0.55692
-0.15,39857.959,3.7113,1.4695,0.33602,2.9961,5.7982,-0.5567
-0.14999,39977.96,3.7096,1.4745,0.0,0.0,5.8167,-0.5564
-0.14999,40097.959,3.7079,1.4795,0.0,0.0,5.8352,-0.55615
-0.14999,40217.959,3.7064,1.4845,0.0,3.05,5.8538,-0.55592
-0.15,40337.96,3.7045,1.4895,0.0,0.0,5.8723,-0.55568
-0.14999,40457.959,3.7029,1.4945,0.0,0.0,5.8908,-0.5554
-0.15,40577.959,3.7015,1.4995,0.32744,3.0785,5.9093,-0.55523
-0.14999,40697.96,3.6997,1.5044,0.0,0.0,5.9278,-0.55492
-0.15,40817.96,3.6983,1.5094,0.0,0.0,5.9463,-0.55475
-0.14999,40937.96,3.6968,1.5144,0.0,0.0,5.9648,-0.55448
-0.14999,41057.96,3.695,1.5194,0.0,,5.9832,-0.55421
-0.15,41177.959,3.6937,1.5244,0.0,,6.0017,-0.55406
-0.14999,41297.96,3.6919,1.5294,0.31561,,6.0202,-0.55375
-0.14999,41417.959,3.6905,1.5344,0.0,,6.0386,-0.55354
-0.15,41537.959,3.6888,1.5394,0.0,,6.0571,-0.55332
-0.15,41657.96,3.6873,1.5444,0.0,,6.0755,-0.5531
-0.14999,41777.96,3.686,1.5494,0.0,3.2843,6.0939,-0.55286
-0.15,41897.959,3.6843,1.5544,0.0,0.0,6.1123,-0.55265
-0.14999,42017.96,3.683,1.5594,,0.0,6.1308,-0.55241
-0.15,42137.959,3.6814,1.5644,0.30165,3.4082,6.1492,-0.55221
-0.14999,42257.959,3.6801,1.5694,0.0,0.0,6.1676,-0.55198
-0.14999,42377.96,3.6786,1.5744,0.0,0.0,6.1859,-0.55175
-0.14999,42497.959,3.6771,1.5794,0.0,0.0,6.2043,-0.55153
-0.15,42617.959,3.6759,1.5844,0.0,,6.2227,-0.55139
-0.15,42737.959,3.6743,1.5894,0.0,,6.2411,-0.55115
-0.14999,42857.959,3.673,1.5944,0.0,,6.2594,-0.55091
-0.15,42977.96,3.6717,1.5994,0.28182,,6.2778,-0.55076
-0.14998,43097.96,3.6701,1.6044,0.0,,6.2961,-0.55044
-0.15,43217.959,3.6689,1.6094,0.0,,6.3145,-0.55034
-0.15,43337.96,3.6676,1.6144,0.0,,6.3328,-0.55014
-0.15,43457.959,3.6661,1.6194,0.0,3.7143,6.3511,-0.54992
-0.14998,43577.96,3.6649,1.6244,0.0,0.0,6.3695,-0.54966
-0.15,43697.959,3.6637,1.6294,0.0,0.0,6.3878,-0.54956
-0.14999,43817.96,3.6622,1.6344,0.0,0.0,6.4061,-0.54929
-0.15,43937.959,3.6611,1.6394,,3.8308,6.4244,-0.54917
-0.14999,44057.959,3.6597,1.6444,,0.0,6.4427,-0.54892
-0.14999,44177.959,3.6585,1.6494,,0.0,6.461,-0.54874
-0.14999,44297.96,3.6573,1.6544,,0.0,6.4793,-0.54856
-0.14999,44417.96,3.6559,1.6594,,3.9243,6.4975,-0.54835
-0.15001,44537.959,3.6548,1.6644,,0.0,6.5158,-0.54826
-0.14999,44657.959,3.6535,1.6694,,0.0,6.5341,-0.54799
-0.14998,44777.959,3.6524,1.6744,,0.0,6.5523,-0.54779
-0.14999,44897.96,3.651,1.6794,,4.0994,6.5706,-0.54761
-0.14998,45017.959,3.6498,1.6844,,0.0,6.5888,-0.5474
-0.15,45137.96,3.6487,1.6894,,0.0,6.6071,-0.54731
-0.15,45257.959,3.6474,1.6944,,0.0,6.6253,-0.54711
-0.14999,45377.96,3.6463,1.6994,,4.1667,6.6435,-0.54691
-0.15,45497.959,3.6453,1.7044,,0.0,6.6617,-0.5468
-0.15,45617.958,3.6439,1.7094,,0.0,6.68,-0.54659
-0.15,45737.959,3.6429,1.7144,,0.0,6.6982,-0.54644
-0.14998,45857.959,3.6416,1.7194,0.23712,0.0,6.7164,-0.54617
-0.14998,45977.959,3.6406,1.7244,0.0,,6.7346,-0.54602
-0.14999,46097.96,3.6394,1.7294,0.0,,6.7528,-0.54587
-0.15,46217.96,3.6381,1.7344,0.0,,6.771,-0.54572
-0.14999,46337.959,3.6371,1.7394,0.0,,6.7891,-0.54553
-0.14998,46457.959,3.6358,1.7444,0.0,,6.8073,-0.5453
-0.15,46577.959,3.6348,1.7494,0.0,,6.8255,-0.54522
-0.14998,46697.959,3.6337,1.7544,0.0,,6.8437,-0.54498
-0.15,46817.959,3.6324,1.7594,0.0,,6.8618,-0.54486
-0.14998,46937.959,3.6315,1.7644,,4.4539,6.88,-0.54465
-0.14999,47057.959,3.6302,1.7694,,0.0,6.8981,-0.54449
-0.14999,47177.959,3.6292,1.7744,,0.0,6.9163,-0.54434
-0.15,47297.959,3.6281,1.7794,,0.0,6.9344,-0.54422
-0.14999,47417.959,3.6269,1.7844,,0.0,6.9525,-0.544
-0.14999,47537.959,3.6259,1.7894,0.0,,6.9707,-0.54385
-0.15,47657.96,3.6246,1.7943,0.0,,6.9888,-0.54369
-0.14999,47777.96,3.6235,1.7993,0.0,,7.0069,-0.54349
-0.14999,47897.959,3.6226,1.8043,0.0,,7.025,-0.54335
-0.15,48017.959,3.6213,1.8093,,4.5128,7.0431,-0.5432
-0.14999,48137.959,3.6203,1.8143,,0.0,7.0612,-0.54301
-0.14999,48257.959,3.6191,1.8193,,0.0,7.0793,-0.54283
-0.14998,48377.959,3.618,1.8243,,0.0,7.0974,-0.54263
-0.14999,48497.96,3.617,1.8293,,0.0,7.1155,-0.54251
-0.14999,48617.959,3.6157,1.8343,,,7.1335,-0.54232
-0.14999,48737.959,3.6148,1.8393,,,7.1516,-0.54218
-0.14998,48857.959,3.6136,1.8443,,,7.1697,-0.54197
-0.14999,48977.96,3.6123,1.8493,,,7.1877,-0.54181
-0.14999,49097.959,3.6114,1.8543,,4.4623,7.2058,-0.54167
-0.14999,49217.959,3.6102,1.8593,,0.0,7.2238,-0.54149
-0.14999,49337.959,3.6089,1.8643,,0.0,7.2419,-0.5413
-0.14999,49457.959,3.6079,1.8693,,0.0,7.2599,-0.54115
-0.14999,49577.959,3.6067,1.8743,,0.0,7.2779,-0.54097
-0.14999,49697.96,3.6055,1.8793,,,7.296,-0.54079
-0.14999,49817.96,3.6045,1.8843,,,7.314,-0.54064
-0.14998,49937.959,3.6031,1.8893,,,7.332,-0.54039
-0.15,50057.96,3.6021,1.8943,,,7.35,-0.54032
-0.14999,50177.959,3.6007,1.8993,,,7.368,-0.54007
-0.15,50297.96,3.5996,1.9043,,,7.386,-0.53994
-0.14999,50417.959,3.5985,1.9093,,,7.404,-0.53974
-0.15,50537.959,3.5971,1.9143,,,7.422,-0.53957
-0.15,50657.96,3.5961,1.9193,,4.1707,7.4399,-0.53942
-0.14998,50777.959,3.5947,1.9243,,0.0,7.4579,-0.53913
-0.14999,50897.959,3.5936,1.9293,,0.0,7.4759,-0.539
-0.14999,51017.96,3.5923,1.9343,,0.0,7.4938,-0.53881
-0.15,51137.959,3.591,1.9393,,4.0543,7.5118,-0.53865
-0.14999,51257.959,3.5899,1.9443,,0.0,7.5297,-0.53845
-0.14998,51377.96,3.5885,1.9493,,0.0,7.5477,-0.5382
-0.14998,51497.96,3.5873,1.9543,,0.0,7.5656,-0.53802
-0.14999,51617.958,3.586,1.9593,,3.9763,7.5835,-0.53786
-0.14999,51737.959,3.5847,1.9643,,0.0,7.6015,-0.53767
-0.15,51857.96,3.5835,1.9693,,0.0,7.6194,-0.53753
-0.14999,51977.96,3.5821,1.9743,,0.0,7.6373,-0.53728
-0.15,52097.959,3.5809,1.9793,,3.8852,7.6552,-0.53714
-0.14999,52217.959,3.5795,1.9843,,0.0,7.6731,-0.53689
-0.14998,52337.959,3.5781,1.9893,,0.0,7.691,-0.53664
-0.14998,52457.959,3.577,1.9943,,0.0,7.7088,-0.53648
-0.15,52577.959,3.5755,1.9993,,,7.7267,-0.53633
-0.15,52697.96,3.5743,2.0043,,,7.7446,-0.53615
-0.14999,52817.96,3.5728,2.0093,,,7.7624,-0.53588
-0.14999,52937.959,3.5714,2.0143,0.26546,,7.7803,-0.53567
-0.14999,53057.959,3.5702,2.0193,0.0,,7.7981,-0.53549
-0.14999,53177.96,3.5687,2.0243,0.0,,7.816,-0.53527
-0.15,53297.959,3.5674,2.0293,0.0,,7.8338,-0.53511
-0.15,53417.96,3.5659,2.0343,0.0,3.6296,7.8516,-0.53489
-0.15,53537.96,3.5645,2.0393,0.0,0.0,7.8695,-0.53468
-0.14999,53657.96,3.5632,2.0443,0.0,0.0,7.8873,-0.53444
-0.15,53777.96,3.5616,2.0493,0.28022,0.0,7.9051,-0.53424
-0.14999,53897.96,3.5604,2.0543,0.0,,7.9229,-0.53402
-0.14999,54017.959,3.5588,2.0593,0.0,,7.9407,-0.53378
-0.14999,54137.96,3.5573,2.0643,0.0,,7.9585,-0.53356
-0.15,54257.96,3.556,2.0693,0.0,3.4299,7.9762,-0.5334
-0.14998,54377.959,3.5543,2.0743,0.0,0.0,7.994,-0.53307
-0.15,54497.959,3.553,2.0793,0.0,0.0,8.0118,-0.53295
-0.14999,54617.959,3.5514,2.0842,0.29341,0.0,8.0295,-0.53267
-0.15,54737.959,3.5499,2.0892,0.0,,8.0473,-0.53249
-0.15,54857.959,3.5485,2.0942,0.0,,8.065,-0.53228
-0.14999,54977.959,3.5467,2.0992,0.0,,8.0827,-0.53197
-0.14999,55097.959,3.5454,2.1042,0.0,,8.1005,-0.53177
-0.14999,55217.959,3.5436,2.1092,0.0,,8.1182,-0.5315
-0.15,55337.96,3.5422,2.1142,0.0,,8.1359,-0.53133
-0.15,55457.96,3.5408,2.1192,,3.2366,8.1536,-0.53112
-0.15,55577.96,3.539,2.1242,,0.0,8.1713,-0.53085
-0.15,55697.959,3.5376,2.1292,,0.0,8.189,-0.53064
-0.14999,55817.959,3.5359,2.1342,,3.2055,8.2067,-0.53035
-0.15,55937.96,3.5343,2.1392,,0.0,8.2243,-0.53015
-0.15,56057.96,3.5329,2.1442,,0.0,8.242,-0.52994
-0.14999,56177.959,3.5311,2.1492,0.31336,3.1656,8.2596,-0.52963
-0.14999,56297.96,3.5298,2.1542,0.0,0.0,8.2773,-0.52943
-0.15,56417.96,3.528,2.1592,0.0,0.0,8.2949,-0.5292
-0.14999,56537.959,3.5266,2.1642,0.0,0.0,8.3126,-0.52895
-0.14999,56657.959,3.525,2.1692,0.0,,8.3302,-0.52871
-0.15,56777.96,3.5233,2.1742,0.0,,8.3478,-0.5285
-0.14999,56897.96,3.5218,2.1792,0.31877,,8.3654,-0.52823
-0.15,57017.959,3.52,2.1842,0.0,,8.383,-0.528
-0.15,57137.959,3.5185,2.1892,0.0,,8.4006,-0.52778
-0.15,57257.96,3.5168,2.1942,0.0,,8.4182,-0.52752
-0.14999,57377.959,3.5152,2.1992,0.0,,8.4357,-0.52724
-0.14999,57497.959,3.5136,2.2042,0.0,,8.4533,-0.527
-0.15,57617.96,3.5118,2.2092,0.32761,,8.4709,-0.52677
-0.14999,57737.959,3.5102,2.2142,0.0,,8.4884,-0.52649
-0.14999,57857.959,3.5084,2.2192,0.0,,8.506,-0.52622
-0.14999,57977.96,3.5067,2.2242,0.0,,8.5235,-0.52597
-0.15,58097.959,3.5052,2.2292,0.0,,8.541,-0.52578
-0.14999,58217.959,3.5033,2.2342,0.0,,8.5585,-0.52546
-0.15,58337.96,3.5017,2.2392,0.34065,,8.576,-0.52526
-0.15,58457.959,3.4998,2.2442,0.0,,8.5935,-0.52497
-0.15,58577.96,3.4982,2.2492,0.0,,8.611,-0.52473
-0.14999,58697.959,3.4962,2.2542,0.0,2.8311,8.6285,-0.5244
-0.15,58817.959,3.4945,2.2592,0.0,,8.646,-0.52418
-0.15001,58937.96,3.4928,2.2642,0.0,,8.6634,-0.52395
-0.15,59057.959,3.4908,2.2692,,2.7398,8.6809,-0.52362
-0.14999,59177.958,3.4891,2.2742,,0.0,8.6983,-0.52333
-0.14999,59297.959,3.487,2.2792,,0.0,8.7158,-0.52302
-0.14999,59417.959,3.4851,2.2842,,,8.7332,-0.52273
-0.15,59537.959,3.4834,2.2892,,,8.7506,-0.52251
-0.14999,59657.959,3.4813,2.2942,0.37488,,8.768,-0.52216
-0.14999,59777.959,3.4795,2.2992,0.0,,8.7854,-0.52189
-0.14999,59897.96,3.4777,2.3042,0.0,,8.8028,-0.52162
-0.14999,60017.96,3.4756,2.3092,0.0,2.5846,8.8202,-0.52131
-0.14999,60137.96,3.4737,2.3142,0.0,0.0,8.8375,-0.52102
-0.14999,60257.959,3.4716,2.3192,0.38996,0.0,8.8549,-0.52071
-0.15,60377.959,3.4696,2.3242,0.0,,8.8722,-0.52044
-0.14999,60497.96,3.4678,2.3292,0.0,,8.8896,-0.52014
-0.14999,60617.959,3.4656,2.3342,0.0,2.4989,8.9069,-0.51981
-0.14999,60737.959,3.4638,2.3392,0.0,0.0,8.9242,-0.51954
-0.14999,60857.96,3.4617,2.3442,0.40127,0.0,8.9415,-0.51922
-0.14999,60977.96,3.4597,2.3492,0.0,,8.9588,-0.51892
-0.14999,61097.959,3.4576,2.3542,0.0,,8.9761,-0.51861
-0.14999,61217.959,3.4554,2.3592,0.0,2.4329,8.9934,-0.51828
-0.14999,61337.959,3.4535,2.3642,0.0,0.0,9.0107,-0.51799
-0.14999,61457.959,3.4513,2.3692,0.413,0.0,9.0279,-0.51766
-0.14999,61577.959,3.4494,2.3741,0.0,,9.0452,-0.51738
-0.14998,61697.96,3.4473,2.3791,0.0,,9.0624,-0.51703
-0.14999,61817.96,3.4452,2.3841,0.0,,9.0796,-0.51675
-0.15,61937.959,3.4433,2.3891,0.0,,9.0968,-0.5165
-0.14999,62057.959,3.4412,2.3941,0.40444,2.5183,9.114,-0.51615
-0.14999,62177.959,3.4394,2.3991,0.0,,9.1312,-0.51588
-0.14999,62297.96,3.4374,2.4041,0.0,,9.1484,-0.51558
-0.14999,62417.959,3.4356,2.4091,0.0,2.6703,9.1656,-0.51531
-0.14999,62537.96,3.434,2.4141,0.0,0.0,9.1828,-0.51507
-0.14999,62657.959,3.4322,2.4191,0.0,0.0,9.1999,-0.5148
-0.14999,62777.959,3.4307,2.4241,,2.9256,9.2171,-0.51457
-0.15,62897.959,3.4291,2.4291,,0.0,9.2342,-0.51437
-0.15,63017.96,3.4275,2.4341,,0.0,9.2514,-0.51413
-0.15,63137.959,3.4261,2.4391,,3.2136,9.2685,-0.51392
-0.15,63257.96,3.4245,2.4441,,0.0,9.2856,-0.51368
-0.15001,63377.959,3.423,2.4491,,0.0,9.3027,-0.51348
-0.15,63497.96,3.4218,2.4541,0.30234,0.0,9.3198,-0.51327
-0.14999,63617.96,3.4201,2.4591,0.0,,9.3369,-0.51298
-0.14999,63737.959,3.419,2.4641,0.0,,9.354,-0.51282
-0.15,63857.959,3.4173,2.4691,0.0,,9.3711,-0.5126
-0.14999,63977.96,3.416,2.4741,0.0,3.5762,9.3882,-0.51237
-0.14999,64097.959,3.4147,2.4791,0.0,0.0,9.4053,-0.51217
-0.14999,64217.96,3.4132,2.4841,0.0,0.0,9.4223,-0.51195
-0.14999,64337.96,3.412,2.4891,0.28052,0.0,9.4394,-0.51177
-0.14999,64457.959,3.4104,2.4941,0.0,,9.4564,-0.51153
-0.14999,64577.96,3.409,2.4991,0.0,,9.4735,-0.51132
-0.15,64697.959,3.4076,2.5041,,,9.4905,-0.51114
-0.14999,64817.96,3.406,2.5091,,3.4637,9.5075,-0.51087
-0.14999,64937.959,3.4047,2.5141,,0.0,9.5246,-0.51067
-0.14999,65057.959,3.403,2.5191,,0.0,9.5416,-0.51042
-0.15,65177.959,3.4016,2.5241,0.29321,0.0,9.5586,-0.51024
-0.14999,65297.959,3.4001,2.5291,0.0,,9.5756,-0.50998
-0.15,65417.959,3.3983,2.5341,0.0,,9.5926,-0.50975
-0.14998,65537.959,3.3969,2.5391,0.0,,9.6096,-0.50947
-0.14999,65657.96,3.3952,2.5441,0.0,,9.6265,-0.50925
-0.14999,65777.96,3.3934,2.5491,0.0,,9.6435,-0.50898
-0.15,65897.959,3.3918,2.5541,0.32828,,9.6605,-0.50877
-0.14999,66017.959,3.3898,2.5591,0.0,,9.6774,-0.50844
-0.14999,66137.959,3.3881,2.5641,0.0,,9.6943,-0.50818
-0.14999,66257.959,3.3861,2.5691,0.0,2.7005,9.7113,-0.50788
-0.14999,66377.96,3.3842,2.5741,0.0,0.0,9.7282,-0.5076
-0.14999,66497.96,3.3822,2.5791,0.0,0.0,9.7451,-0.5073
-0.15,66617.959,3.3799,2.5841,,,9.762,-0.50699
-0.14998,66737.959,3.3779,2.5891,,,9.7789,-0.50662
-0.15,66857.96,3.3755,2.5941,,2.269,9.7958,-0.50633
-0.14999,66977.96,3.3732,2.5991,,0.0,9.8126,-0.50595
-0.15001,67097.959,3.3705,2.6041,0.45867,2.0576,9.8295,-0.50561
-0.14999,67217.96,3.3679,2.6091,0.0,0.0,9.8463,-0.50515
-0.15001,67337.959,3.3652,2.6141,0.0,1.8459,9.8632,-0.50481
-0.15,67457.959,3.3621,2.6191,0.0,0.0,9.88,-0.50432
-0.15,67577.96,3.359,2.6241,,,9.8968,-0.50385
-0.15,67697.96,3.3557,2.6291,,1.5334,9.9136,-0.50336
-0.14997,67817.959,3.3521,2.6341,,0.0,9.9303,-0.50271
-0.15,67937.96,3.3485,2.6391,,,9.9471,-0.50228
-0.14999,68057.959,3.3444,2.6441,,1.3,9.9638,-0.50163
-0.14998,68177.96,3.3403,2.6491,0.79007,1.2134,9.9805,-0.50098
-0.14999,68297.96,3.3358,2.6541,0.0,1.1335,9.9972,-0.50034
-0.15,68417.959,3.331,2.6591,0.9008,1.0633,10.014,-0.49965
-0.14999,68537.96,3.3262,2.6641,0.0,1.0007,10.03,-0.4989
-0.15001,68657.96,3.3208,2.6691,1.0185,0.96333,10.047,-0.49815
-0.15,68777.959,3.3153,2.6741,0.0,0.90037,10.064,-0.4973
-0.15,68897.96,3.3096,2.6791,1.1154,0.8713,10.08,-0.49644
-0.14998,69017.96,3.3033,2.6841,0.0,0.83489,10.097,-0.49543
-0.14999,69137.96,3.297,2.6891,,,10.113,-0.49452
-0.15,69257.959,3.2901,2.6941,1.3219,0.74547,10.13,-0.49352
-0.15,69377.96,3.283,2.699,0.0,0.71757,10.146,-0.49245
-0.14999,69497.96,3.2757,2.704,,0.66013,10.163,-0.49132
-0.14999,69617.959,3.2676,2.709,,0.64282,10.179,-0.49011
-0.15,69737.959,3.2591,2.714,1.6381,0.59742,10.195,-0.48887
-0.14999,69857.96,3.2504,2.719,1.7602,0.55311,10.211,-0.48753
-0.14999,69977.96,3.2408,2.724,1.8791,0.52404,10.228,-0.48609
-0.15,70097.959,3.2309,2.729,1.999,0.49542,10.244,-0.48464
-0.14999,70217.96,3.2203,2.734,2.1003,0.47263,10.26,-0.48301
-0.14998,70337.959,3.209,2.739,2.2189,0.44968,10.276,-0.48129
-0.14999,70457.959,3.1975,2.744,2.3045,0.42638,10.292,-0.47959
-0.15,70577.959,3.185,2.749,,0.39971,10.308,-0.47775
-0.14999,70697.959,3.1721,2.754,,0.38239,10.324,-0.47578
-0.14999,70817.96,3.1582,2.759,2.7194,0.35473,10.34,-0.4737
-0.14999,70937.959,3.1437,2.764,,0.34342,10.355,-0.47152
-0.15,71057.959,3.1286,2.769,3.0584,0.32408,10.371,-0.46929
-0.14999,71177.959,3.1123,2.774,,0.30817,10.387,-0.46681
-0.15,71297.96,3.0952,2.779,3.3938,0.28491,10.402,-0.46428
-0.14998,71417.96,3.0769,2.784,3.6512,0.27,10.418,-0.46147
-0.15,71537.959,3.0573,2.789,3.9209,0.24843,10.433,-0.4586
-0.14999,71657.959,3.0365,2.794,4.1998,0.23534,10.448,-0.45544
-0.14999,71777.96,3.0138,2.799,4.4853,0.21797,10.463,-0.45204
-0.15,71897.959,2.9893,2.804,4.9957,0.20012,10.478,-0.4484
-0.14999,72017.959,2.9626,2.809,5.3598,0.18016,10.493,-0.44436
-0.15,72137.959,2.9328,2.814,5.9875,0.16192,10.508,-0.43992
-0.15,72257.959,2.8995,2.819,6.9718,0.14043,10.523,-0.43493
-0.15,72377.959,2.86,2.824,8.4631,0.11496,10.537,-0.429
-0.15,72497.96,2.8083,2.829,11.829,0.083793,10.551,-0.42125
-0.15,72617.959,2.7314,2.834,17.216,0.056684,10.565,-0.40971
-0.14999,72737.959,2.6376,2.839,19.273,0.052784,10.578,-0.39561
-0.14999,72857.96,2.5425,2.844,18.785,0.0535,10.591,-0.38135
-0.15,72914.339,2.5,2.8463,17.669,0.057062,10.597,-0.375