File: Data/monotonic_segments/Cycle 72_discharge.csv
Current(A),Test_Time(s),Voltage(V),Discharge_Capacity(Ah),dV/dQ(V/Ah),dQ/dV(Ah/V),Discharge_Energy(Wh),Power(W)
-0.15002,14544,4.0704,0.41255,,,1.692,-0.61064
-0.15002,14664,4.07,0.41755,,,1.7124,-0.61058
-0.15001,14784,4.0694,0.42255,,,1.7327,-0.61045
-0.15001,14904,4.0691,0.42755,,,1.7531,-0.61041
-0.15002,15024,4.0687,0.43255,0.0,,1.7734,-0.61039
-0.15002,15144,4.068,0.43755,0.0,,1.7938,-0.61028
-0.15002,15264,4.0677,0.44255,0.0,,1.8141,-0.61024
-0.15002,15383.973,4.067,0.44755,0.0,,1.8344,-0.61013
-0.15002,15504,4.0663,0.45255,0.0,,1.8548,-0.61003
-0.15001,15624,4.066,0.45755,0.0,,1.8751,-0.60994
-0.15002,15744,4.0651,0.46255,0.0,,1.8954,-0.60985
-0.15002,15864,4.0645,0.46755,0.0,,1.9158,-0.60976
-0.15001,15984,4.0636,0.47255,0.0,,1.9361,-0.60958
-0.15001,16104,4.0627,0.47755,0.0,,1.9564,-0.60945
-0.15002,16224,4.062,0.48255,0.0,,1.9767,-0.60938
-0.15001,16344,4.0607,0.48756,,,1.997,-0.60915
-0.15001,16464,4.0599,0.49256,,,2.0173,-0.60903
-0.15002,16584,4.0586,0.49756,,,2.0376,-0.60887
-0.15001,16704,4.0575,0.50256,,,2.0579,-0.60867
-0.15002,16824,4.0564,0.50756,,,2.0782,-0.60854
-0.15002,16944,4.0549,0.51256,,,2.0985,-0.60832
-0.15001,17063.974,4.0536,0.51756,,,2.1188,-0.60808
-0.15001,17184,4.0523,0.52256,,,2.139,-0.60789
-0.15002,17304,4.0508,0.52756,,3.5596,2.1593,-0.6077
-0.15001,17424,4.0494,0.53256,,0.0,2.1795,-0.60745
-0.15002,17544,4.0476,0.53756,,0.0,2.1998,-0.60722
-0.15002,17664,4.0462,0.54256,,3.3542,2.22,-0.60701
-0.15002,17784,4.0446,0.54756,,0.0,2.2402,-0.60677
-0.15002,17904,4.0428,0.55256,,0.0,2.2605,-0.6065
-0.15002,18024,4.0414,0.55756,0.30693,0.0,2.2807,-0.60629
-0.15002,18144,4.0396,0.56256,0.0,,2.3009,-0.60602
-0.15002,18264,4.038,0.56756,0.0,,2.3211,-0.60578
-0.15002,18384,4.0361,0.57256,0.0,2.7568,2.3413,-0.6055
-0.15002,18503.974,4.0343,0.57756,0.0,0.0,2.3614,-0.60523
-0.15002,18624,4.0328,0.58257,0.0,0.0,2.3816,-0.605
-0.15002,18744,4.0307,0.58757,0.35174,3.0116,2.4018,-0.60469
-0.15002,18864,4.0291,0.59257,0.0,0.0,2.4219,-0.60445
-0.15002,18984,4.0272,0.59757,0.0,0.0,2.4421,-0.60416
-0.15002,19104,4.0253,0.60257,0.0,2.6714,2.4622,-0.60388
-0.15002,19224,4.0236,0.60757,0.0,0.0,2.4823,-0.60362
-0.15002,19344,4.0215,0.61257,0.0,0.0,2.5024,-0.60331
-0.15001,19464,4.0197,0.61757,,,2.5225,-0.603
-0.15002,19584,4.0176,0.62257,,,2.5426,-0.60272
-0.15001,19704,4.0157,0.62757,,2.3908,2.5627,-0.6024
-0.15002,19824,4.0138,0.63257,,0.0,2.5828,-0.60215
-0.15002,19944,4.0115,0.63757,,0.0,2.6029,-0.60181
-0.15002,20064,4.0097,0.64257,,,2.6229,-0.60154
-0.15001,20184,4.0075,0.64757,,,2.643,-0.60117
-0.15001,20304,4.0055,0.65257,,2.494,2.663,-0.60087
-0.15002,20424,4.0034,0.65757,,0.0,2.683,-0.60059
-0.15001,20544,4.0012,0.66257,0.4212,0.0,2.703,-0.60022
-0.15001,20664,3.9993,0.66757,0.0,,2.723,-0.59993
-0.15001,20784,3.997,0.67257,0.0,,2.743,-0.59959
-0.15001,20904,3.995,0.67757,0.0,2.3807,2.763,-0.59929
-0.15001,21024,3.9927,0.68258,0.0,0.0,2.783,-0.59894
-0.15002,21144,3.9907,0.68758,0.41143,2.3134,2.803,-0.59868
-0.15002,21264,3.9888,0.69258,0.0,0.0,2.8229,-0.5984
-0.15002,21384,3.9865,0.69758,0.0,0.0,2.8428,-0.59805
-0.15002,21504,3.9846,0.70258,0.0,,2.8628,-0.59777
-0.15002,21624,3.9823,0.70758,0.0,,2.8827,-0.59742
-0.15001,21744,3.9803,0.71258,,2.4048,2.9026,-0.59708
-0.15001,21864,3.9783,0.71758,,0.0,2.9225,-0.59678
-0.15001,21983.973,3.9761,0.72258,0.0,0.0,2.9424,-0.59645
-0.15001,22103.975,3.9743,0.72758,0.0,,2.9623,-0.59618
-0.15001,22224,3.9721,0.73258,0.0,,2.9821,-0.59585
-0.15001,22344,3.9701,0.73758,,2.4744,3.002,-0.59555
-0.15002,22464,3.9683,0.74258,,0.0,3.0218,-0.59532
-0.15002,22584,3.9662,0.74758,,0.0,3.0417,-0.59501
-0.15001,22704,3.9644,0.75258,,,3.0615,-0.5947
-0.15001,22824,3.9623,0.75758,0.0,,3.0813,-0.59438
-0.15002,22944,3.9604,0.76258,0.39042,2.6462,3.1011,-0.59414
-0.15001,23064,3.9587,0.76758,0.0,0.0,3.1209,-0.59384
-0.15002,23184,3.9566,0.77258,0.0,0.0,3.1407,-0.59357
-0.15002,23303.973,3.9548,0.77759,0.0,,3.1605,-0.5933
-0.15003,23424,3.9532,0.78259,0.0,,3.1803,-0.5931
-0.15002,23544,3.9512,0.78759,0.0,,3.2,-0.59276
-0.15001,23664,3.9497,0.79259,,,3.2198,-0.59249
-0.15002,23784,3.9478,0.79759,,,3.2395,-0.59225
-0.15002,23904,3.946,0.80259,,,3.2593,-0.59198
-0.15002,24024,3.9446,0.80759,,,3.279,-0.59177
-0.15003,24144,3.9427,0.81259,,,3.2987,-0.59152
-0.15001,24264,3.9413,0.81759,,,3.3184,-0.59123
-0.15001,24384,3.9395,0.82259,,,3.3381,-0.59096
-0.15002,24504,3.938,0.82759,,,3.3578,-0.59078
-0.15001,24624,3.9364,0.83259,,,3.3775,-0.5905
-0.15002,24744,3.9347,0.83759,,,3.3972,-0.59028
-0.15002,24864,3.9334,0.84259,,,3.4169,-0.59009
-0.15002,24984,3.9318,0.84759,,,3.4365,-0.58985
-0.15002,25104,3.9304,0.85259,,3.3209,3.4562,-0.58964
-0.15002,25223.974,3.929,0.85759,,0.0,3.4758,-0.58943
-0.15002,25343.973,3.9273,0.86259,,0.0,3.4955,-0.58917
-0.15002,25464,3.9262,0.86759,,0.0,3.5151,-0.58901
-0.15001,25584,3.9246,0.87259,,,3.5348,-0.58873
-0.15001,25704,3.9234,0.8776,,,3.5544,-0.58855
-0.15002,25824,3.922,0.8826,,,3.574,-0.58838
-0.15002,25944,3.9206,0.8876,0.27554,3.587,3.5936,-0.58817
-0.15002,26064,3.9194,0.8926,0.0,0.0,3.6132,-0.58799
-0.15002,26184,3.918,0.8976,0.0,0.0,3.6328,-0.58778
-0.15001,26304,3.9169,0.9026,0.0,0.0,3.6524,-0.58757
-0.15001,26424,3.9155,0.9076,0.0,4.0339,3.672,-0.58736
-0.15001,26543.974,3.9142,0.9126,0.0,0.0,3.6915,-0.58717
-0.15001,26664,3.9132,0.9176,0.0,0.0,3.7111,-0.58702
-0.15002,26783.973,3.9118,0.9226,0.0,0.0,3.7307,-0.58685
-0.15001,26904,3.9108,0.9276,0.24914,4.0581,3.7502,-0.58666
-0.15001,27024,3.9094,0.9326,0.0,0.0,3.7698,-0.58645
-0.15002,27144,3.9083,0.9376,0.0,0.0,3.7893,-0.58632
-0.15001,27263.973,3.9073,0.9426,0.0,0.0,3.8089,-0.58613
-0.15001,27384,3.906,0.9476,0.0,0.0,3.8284,-0.58594
-0.15001,27504,3.905,0.9526,0.0,,3.8479,-0.58579
-0.15001,27624,3.9037,0.9576,0.0,,3.8675,-0.58559
-0.15001,27744,3.9025,0.9626,0.0,,3.887,-0.58541
-0.15001,27864,3.9016,0.9676,0.0,,3.9065,-0.58528
-0.15002,27984,3.9003,0.9726,,4.2749,3.926,-0.58512
-0.15001,28104,3.8994,0.9776,,0.0,3.9455,-0.58495
-0.15002,28224,3.8982,0.9826,,0.0,3.965,-0.58481
-0.15002,28344,3.897,0.9876,,0.0,3.9845,-0.58463
-0.15002,28463.974,3.896,0.99261,,4.3652,4.004,-0.58448
-0.15,28584,3.8947,0.99761,,0.0,4.0234,-0.58421
-0.15002,28704,3.8937,1.0026,,0.0,4.0429,-0.58413
-0.15002,28824,3.8926,1.0076,,0.0,4.0624,-0.58397
-0.15001,28944,3.8913,1.0126,,0.0,4.0818,-0.58373
-0.15001,29064,3.8903,1.0176,,4.5533,4.1013,-0.58358
-0.15002,29183.974,3.889,1.0226,,0.0,4.1208,-0.58343
-0.15002,29303.974,3.888,1.0276,,0.0,4.1402,-0.58328
-0.15001,29424,3.8867,1.0326,,0.0,4.1596,-0.58304
-0.15001,29544,3.8855,1.0376,,0.0,4.1791,-0.58286
-0.15001,29664,3.8845,1.0426,,,4.1985,-0.58271
-0.15001,29784,3.8831,1.0476,,,4.2179,-0.5825
-0.15002,29904,3.882,1.0526,,,4.2373,-0.58238
-0.15001,30024,3.8806,1.0576,0.23993,,4.2567,-0.58213
-0.15002,30144,3.8796,1.0626,0.0,,4.2761,-0.58202
-0.15001,30264,3.8781,1.0676,0.0,,4.2955,-0.58175
-0.15001,30384,3.8768,1.0726,0.0,,4.3149,-0.58156
-0.15002,30503.973,3.8757,1.0776,0.0,,4.3343,-0.58143
-0.15001,30624,3.8742,1.0826,0.0,,4.3537,-0.58117
-0.15001,30744,3.873,1.0876,0.0,,4.3731,-0.58099
-0.15001,30863.974,3.8714,1.0926,0.0,,4.3924,-0.58075
-0.15001,30984,3.8701,1.0976,,3.6805,4.4118,-0.58055
-0.15001,31104,3.8688,1.1026,,0.0,4.4311,-0.58036
-0.15002,31223.974,3.8673,1.1076,,0.0,4.4505,-0.58017
-0.15002,31344,3.8659,1.1126,,0.0,4.4698,-0.57996
-0.15,31463.973,3.8642,1.1176,,,4.4891,-0.57963
-0.15001,31584,3.8627,1.1226,,,4.5084,-0.57944
-0.15001,31704,3.8613,1.1276,,,4.5278,-0.57923
-0.15001,31824,3.8595,1.1326,,,4.5471,-0.57896
-0.15001,31944,3.858,1.1376,,,4.5664,-0.57874
-0.15001,32064,3.8562,1.1426,,,4.5856,-0.57847
-0.15002,32184,3.8545,1.1476,,,4.6049,-0.57825
-0.15001,32304,3.8529,1.1526,,,4.6242,-0.57797
-0.15002,32424,3.8509,1.1576,0.34226,,4.6434,-0.57771
-0.15001,32544,3.849,1.1626,0.0,,4.6627,-0.57739
-0.15,32664,3.8472,1.1676,0.0,,4.6819,-0.57708
-0.15001,32784,3.845,1.1726,0.0,2.5903,4.7012,-0.57679
-0.15001,32904,3.8431,1.1776,0.0,0.0,4.7204,-0.5765
-0.15002,33024,3.8409,1.1826,0.40013,0.0,4.7396,-0.57621
-0.15001,33144,3.8387,1.1876,0.0,,4.7588,-0.57584
-0.15002,33263.973,3.8365,1.1926,0.0,,4.778,-0.57555
-0.15001,33384,3.834,1.1976,0.0,,4.7972,-0.57514
-0.15,33504,3.8316,1.2026,0.0,,4.8163,-0.57474
-0.15,33624,3.8293,1.2076,,,4.8355,-0.5744
-0.15001,33744,3.8266,1.2126,,,4.8546,-0.57403
-0.15002,33864,3.8243,1.2176,,2.021,4.8738,-0.57372
-0.15001,33984,3.8216,1.2226,,0.0,4.8929,-0.57328
-0.15001,34104,3.8193,1.2276,,,4.912,-0.57293
-0.15002,34224,3.8168,1.2326,,,4.9311,-0.5726
-0.15002,34344,3.8141,1.2376,,,4.9502,-0.57219
-0.15002,34464,3.8119,1.2426,,,4.9692,-0.57186
-0.15002,34584,3.8093,1.2476,,2.0637,4.9883,-0.57147
-0.15001,34704,3.8071,1.2526,,0.0,5.0073,-0.5711
-0.15001,34824,3.8047,1.2576,,2.1523,5.0264,-0.57074
-0.15002,34944,3.8025,1.2626,,0.0,5.0454,-0.57045
-0.15001,35064,3.8006,1.2676,0.44969,0.0,5.0644,-0.57013
-0.15002,35184,3.7984,1.2726,0.0,,5.0834,-0.56984
-0.15002,35304,3.7966,1.2776,0.0,,5.1024,-0.56957
-0.15001,35423.973,3.7945,1.2826,0.0,2.5059,5.1214,-0.56921
-0.15002,35544,3.7926,1.2876,0.0,0.0,5.1403,-0.56897
-0.15002,35664,3.7909,1.2926,0.38813,0.0,5.1593,-0.56871
-0.15001,35783.974,3.789,1.2976,0.0,,5.1782,-0.56839
-0.15001,35904,3.7874,1.3026,0.0,,5.1972,-0.56815
-0.15001,36024,3.7855,1.3076,0.0,,5.2161,-0.56786
-0.15002,36144,3.7839,1.3126,0.0,,5.235,-0.56766
-0.15003,36264,3.7823,1.3176,0.0,,5.254,-0.56746
-0.15002,36384,3.7805,1.3226,0.34352,,5.2729,-0.56715
-0.15001,36504,3.7791,1.3276,0.0,,5.2918,-0.5669
-0.15001,36624,3.7772,1.3326,0.0,,5.3107,-0.56662
-0.15001,36744,3.7757,1.3376,0.0,,5.3295,-0.56639
-0.15002,36864,3.7742,1.3426,0.0,,5.3484,-0.56621
-0.15002,36984,3.7724,1.3476,0.0,,5.3673,-0.56594
-0.15002,37103.975,3.771,1.3526,0.32438,,5.3861,-0.56573
-0.15002,37224,3.7693,1.3576,0.0,,5.405,-0.56547
-0.15002,37344,3.7677,1.3626,0.0,,5.4238,-0.56523
-0.15001,37464,3.7663,1.3676,0.0,,5.4427,-0.56498
-0.15,37584,3.7646,1.3726,0.0,3.1822,5.4615,-0.56469
-0.15002,37704,3.763,1.3776,0.0,0.0,5.4803,-0.56453
-0.15001,37824,3.7616,1.3826,0.0,0.0,5.4991,-0.56428
-0.15001,37944,3.7599,1.3876,,3.1801,5.5179,-0.56402
-0.15002,38064,3.7585,1.3926,,0.0,5.5367,-0.56385
-0.15001,38183.973,3.7568,1.3976,,0.0,5.5555,-0.56356
-0.15002,38304,3.7551,1.4026,,3.2019,5.5743,-0.56334
-0.15001,38424,3.7537,1.4076,,0.0,5.5931,-0.56309
-0.15001,38544,3.752,1.4126,,0.0,5.6119,-0.56284
-0.15001,38664,3.7506,1.4176,0.31499,0.0,5.6306,-0.56263
-0.15001,38784,3.7489,1.4226,0.0,,5.6494,-0.56237
-0.15002,38904,3.7472,1.4276,0.0,,5.6681,-0.56215
-0.15001,39024,3.7458,1.4326,0.0,,5.6868,-0.56191
-0.15002,39144,3.7441,1.4376,0.0,,5.7056,-0.56169
-0.15001,39264,3.7426,1.4426,0.0,,5.7243,-0.56143
-0.15002,39384,3.7409,1.4476,0.31902,,5.743,-0.56121
-0.15001,39504,3.7392,1.4526,0.0,,5.7617,-0.56092
-0.15001,39624,3.7378,1.4576,,,5.7804,-0.56071
-0.15002,39744,3.736,1.4626,,,5.7991,-0.56047
-0.15001,39864,3.7346,1.4676,,,5.8178,-0.56023
-0.15001,39984,3.7329,1.4726,,,5.8364,-0.55997
-0.15001,40103.973,3.7313,1.4776,,,5.8551,-0.55973
-0.15001,40224,3.7297,1.4826,,3.104,5.8737,-0.55949
-0.15002,40344,3.728,1.4876,,0.0,5.8924,-0.55927
-0.15001,40464,3.7265,1.4926,,0.0,5.911,-0.55901
-0.15001,40584,3.7247,1.4976,,3.0934,5.9297,-0.55874
-0.15002,40704,3.7232,1.5026,,0.0,5.9483,-0.55855
-0.15002,40824,3.7217,1.5076,,0.0,5.9669,-0.55833
-0.15001,40944,3.7199,1.5127,,3.1026,5.9855,-0.55802
-0.15001,41064,3.7185,1.5177,,0.0,6.0041,-0.55781
-0.15001,41184,3.7167,1.5227,,0.0,6.0227,-0.55754
-0.15002,41304,3.7151,1.5277,,3.1231,6.0413,-0.55734
-0.15002,41424,3.7137,1.5327,,0.0,6.0598,-0.55713
-0.15001,41544,3.7119,1.5377,,0.0,6.0784,-0.55682
-0.15001,41664,3.7105,1.5427,0.31982,0.0,6.097,-0.55661
-0.15,41784,3.7088,1.5477,0.0,,6.1155,-0.55632
-0.15002,41904,3.7072,1.5527,0.0,,6.134,-0.55615
-0.15002,42024,3.7058,1.5577,0.0,,6.1526,-0.55594
-0.15001,42144,3.704,1.5627,0.0,,6.1711,-0.55564
-0.15001,42264,3.7026,1.5677,0.0,,6.1896,-0.55543
-0.15001,42384,3.7011,1.5727,0.0,,6.2081,-0.5552
-0.15001,42504,3.6994,1.5777,,,6.2266,-0.55495
-0.15002,42624,3.6981,1.5827,,,6.2451,-0.55479
-0.15002,42744,3.6964,1.5877,,,6.2636,-0.55453
-0.15002,42864,3.6949,1.5927,,3.2774,6.2821,-0.55431
-0.15001,42984,3.6936,1.5977,,0.0,6.3006,-0.55408
-0.15002,43104,3.6919,1.6027,,0.0,6.319,-0.55386
-0.15,43224,3.6906,1.6077,0.29964,0.0,6.3375,-0.55359
-0.15002,43344,3.689,1.6127,0.0,,6.356,-0.55342
-0.15002,43464,3.6875,1.6177,0.0,,6.3744,-0.5532
-0.15001,43583.974,3.6863,1.6227,0.0,,6.3928,-0.55298
-0.15001,43704,3.6846,1.6277,0.0,3.4662,6.4113,-0.55273
-0.15002,43824,3.6834,1.6327,0.0,0.0,6.4297,-0.55258
-0.15002,43944,3.6818,1.6377,0.0,0.0,6.4481,-0.55234
-0.15001,44064,3.6806,1.6427,0.28675,0.0,6.4665,-0.55213
-0.15001,44184,3.6791,1.6477,0.0,,6.4849,-0.5519
-0.15001,44304,3.6776,1.6527,0.0,,6.5033,-0.55168
-0.15001,44424,3.6765,1.6577,0.0,,6.5217,-0.55151
-0.15001,44544,3.675,1.6627,0.0,3.6686,6.5401,-0.55129
-0.15001,44664,3.6738,1.6677,0.0,0.0,6.5584,-0.55111
-0.15,44784,3.6723,1.6727,0.0,0.0,6.5768,-0.55085
-0.15001,44904,3.6711,1.6777,0.0,0.0,6.5952,-0.5507
-0.15001,45024,3.6698,1.6827,,3.7438,6.6135,-0.55051
-0.15,45144,3.6684,1.6877,,0.0,6.6319,-0.55026
-0.15001,45264,3.6673,1.6927,,0.0,6.6502,-0.55013
-0.15002,45384,3.6659,1.6977,,0.0,6.6685,-0.54996
-0.15001,45504,3.6646,1.7027,,,6.6869,-0.54973
-0.15,45624,3.6636,1.7077,,,6.7052,-0.54954
-0.15001,45744,3.6621,1.7127,,,6.7235,-0.54935
-0.15002,45864,3.6611,1.7177,,,6.7418,-0.54924
-0.15002,45983.973,3.6598,1.7227,,4.0539,6.7601,-0.54904
-0.15001,46104,3.6585,1.7277,,0.0,6.7784,-0.54881
-0.15002,46224,3.6574,1.7327,,0.0,6.7967,-0.54868
-0.15,46344,3.6561,1.7377,,0.0,6.815,-0.54842
-0.15002,46464,3.6549,1.7427,,4.1775,6.8333,-0.54831
-0.15002,46584,3.6539,1.7477,,0.0,6.8515,-0.54816
-0.15001,46704,3.6526,1.7527,,0.0,6.8698,-0.54793
-0.15002,46824,3.6516,1.7577,,0.0,6.8881,-0.54781
-0.15002,46943.973,3.6503,1.7627,0.23699,0.0,6.9063,-0.54762
-0.15002,47064,3.6492,1.7677,0.0,,6.9246,-0.54745
-0.15002,47183.975,3.6482,1.7727,0.0,,6.9428,-0.5473
-0.15001,47304,3.647,1.7777,0.0,,6.9611,-0.54709
-0.15001,47423.973,3.646,1.7827,0.0,,6.9793,-0.54694
-0.15001,47544,3.6446,1.7877,0.0,,6.9975,-0.54673
-0.15002,47663.973,3.6438,1.7927,0.0,0.0,7.0158,-0.54664
-0.15001,47783.974,3.6426,1.7977,0.0,0.0,7.034,-0.54643
-0.15002,47904,3.6414,1.8027,0.0,0.0,7.0522,-0.54628
-0.15001,48024,3.6405,1.8077,0.22264,0.0,7.0704,-0.54611
-0.15001,48144,3.6393,1.8127,0.0,,7.0886,-0.54593
-0.15002,48264,3.6384,1.8177,0.0,,7.1068,-0.54583
-0.15001,48384,3.6372,1.8227,0.0,,7.125,-0.54562
-0.15002,48504,3.6361,1.8277,0.0,,7.1432,-0.54549
-0.15002,48624,3.6352,1.8327,0.0,4.7153,7.1613,-0.54535
-0.15001,48744,3.634,1.8377,0.0,0.0,7.1795,-0.54514
-0.15001,48864,3.633,1.8427,0.0,0.0,7.1977,-0.54499
-0.15002,48984,3.632,1.8477,0.0,0.0,7.2159,-0.54487
-0.15002,49103.974,3.6309,1.8527,0.0,0.0,7.234,-0.54471
-0.15001,49224,3.63,1.8577,,4.7359,7.2522,-0.54454
-0.15002,49344,3.6288,1.8627,,0.0,7.2703,-0.54439
-0.15002,49464,3.6278,1.8677,,0.0,7.2885,-0.54424
-0.15002,49584,3.6269,1.8727,,0.0,7.3066,-0.54411
-0.15002,49704,3.6256,1.8777,,0.0,7.3247,-0.54391
-0.15002,49824,3.6248,1.8827,,,7.3429,-0.54379
-0.15002,49943.974,3.6237,1.8877,,,7.361,-0.54363
-0.15003,50064,3.6228,1.8927,,0.0,7.3791,-0.54353
-0.15002,50184,3.6217,1.8977,,0.0,7.3972,-0.54333
-0.15002,50304,3.6206,1.9027,0.20445,0.0,7.4153,-0.54316
-0.15001,50424,3.6197,1.9077,0.0,,7.4334,-0.54299
-0.15001,50544,3.6186,1.9127,0.0,,7.4515,-0.54283
-0.15002,50664,3.6175,1.9177,0.0,,7.4696,-0.5427
-0.15001,50784,3.6166,1.9227,0.0,,7.4877,-0.54253
-0.15001,50903.974,3.6155,1.9277,0.0,,7.5058,-0.54236
-0.15001,51023.973,3.6147,1.9327,0.0,,7.5239,-0.54224
-0.15002,51144,3.6135,1.9377,0.0,,7.5419,-0.5421
-0.15002,51264,3.6125,1.9427,0.0,,7.56,-0.54195
-0.15002,51384,3.6116,1.9477,0.0,,7.5781,-0.54181
-0.15002,51504,3.6105,1.9527,0.20546,,7.5961,-0.54165
-0.15001,51624,3.6095,1.9577,0.0,,7.6142,-0.54146
-0.15002,51744,3.6084,1.9627,0.0,,7.6322,-0.54133
-0.15001,51864,3.6074,1.9677,0.0,,7.6503,-0.54115
-0.15002,51984,3.6064,1.9727,0.0,,7.6683,-0.54103
-0.15002,52104,3.6054,1.9777,0.0,,7.6863,-0.54088
-0.15001,52224,3.6042,1.9827,0.0,,7.7044,-0.54067
-0.15001,52344,3.6033,1.9877,0.0,,7.7224,-0.54053
-0.15001,52463.973,3.6021,1.9927,0.0,,7.7404,-0.54035
-0.15,52584,3.6012,1.9977,0.0,,7.7584,-0.54018
-0.15003,52703.973,3.6001,2.0027,,4.7719,7.7764,-0.54012
-0.15001,52823.973,3.599,2.0077,,0.0,7.7944,-0.53989
-0.15002,52944,3.598,2.0127,,0.0,7.8124,-0.53977
-0.15003,53063.974,3.5968,2.0177,,0.0,7.8304,-0.53963
-0.15003,53184,3.5959,2.0227,,0.0,7.8484,-0.53949
-0.15002,53304,3.5947,2.0277,,4.6743,7.8664,-0.53928
-0.15001,53424,3.5935,2.0327,,0.0,7.8843,-0.53906
-0.15002,53544,3.5927,2.0377,,0.0,7.9023,-0.53898
-0.15002,53664,3.5913,2.0427,,0.0,7.9203,-0.53877
-0.15001,53784,3.5904,2.0477,0.2151,0.0,7.9382,-0.5386
-0.15001,53904,3.5891,2.0527,0.0,,7.9562,-0.5384
-0.15001,54023.973,3.5881,2.0577,0.0,,7.9741,-0.53825
-0.15004,54144,3.5869,2.0627,0.0,,7.992,-0.53818
-0.15001,54264,3.5857,2.0677,0.0,,8.01,-0.53789
-0.15001,54384,3.5847,2.0727,0.0,,8.0279,-0.53774
-0.15002,54504,3.5833,2.0777,0.0,,8.0458,-0.53757
-0.15001,54624,3.5823,2.0827,0.0,,8.0637,-0.53738
-0.15003,54744,3.581,2.0877,0.0,,8.0817,-0.53726
-0.15001,54863.974,3.5797,2.0927,,4.1896,8.0996,-0.53699
-0.15001,54984,3.5786,2.0977,,0.0,8.1175,-0.53683
-0.15002,55104,3.5772,2.1027,,0.0,8.1354,-0.53665
-0.15002,55224,3.5761,2.1077,,0.0,8.1532,-0.53649
-0.15001,55344,3.5747,2.1127,,4.0339,8.1711,-0.53624
-0.15002,55464,3.5735,2.1177,,0.0,8.189,-0.5361
-0.15,55583.973,3.5723,2.1227,,0.0,8.2069,-0.53585
-0.15002,55704,3.5709,2.1277,,0.0,8.2247,-0.53571
-0.15001,55823.975,3.5698,2.1327,,3.9006,8.2426,-0.53551
-0.15002,55944,3.5685,2.1377,,0.0,8.2604,-0.53535
-0.15003,56064,3.567,2.1427,,0.0,8.2783,-0.53516
-0.15002,56183.974,3.5659,2.1477,,0.0,8.2961,-0.53496
-0.15002,56304,3.5646,2.1527,,3.9633,8.3139,-0.53476
-0.15002,56424,3.5632,2.1577,,0.0,8.3317,-0.53455
-0.15002,56544,3.5621,2.1627,,0.0,8.3496,-0.53439
-0.15003,56664,3.5605,2.1677,0.25865,0.0,8.3674,-0.53418
-0.15001,56783.974,3.5593,2.1727,0.0,,8.3852,-0.53393
-0.15002,56904,3.558,2.1777,0.0,,8.403,-0.53377
-0.15001,57024,3.5565,2.1827,0.0,,8.4208,-0.53351
-0.15003,57144,3.5553,2.1877,0.0,,8.4385,-0.5334
-0.15001,57264,3.5538,2.1927,0.0,,8.4563,-0.53311
-0.15001,57384,3.5525,2.1977,0.0,,8.4741,-0.53291
-0.15001,57504,3.5511,2.2027,0.0,,8.4918,-0.5327
-0.15002,57624,3.5495,2.2077,,3.5634,8.5096,-0.5325
-0.15002,57743.973,3.5483,2.2127,,0.0,8.5273,-0.53232
-0.15002,57864,3.5466,2.2177,,0.0,8.5451,-0.53206
-0.15001,57984,3.5453,2.2227,,0.0,8.5628,-0.53183
-0.15002,58104,3.5437,2.2277,,,8.5805,-0.53163
-0.15002,58224,3.5422,2.2327,,,8.5982,-0.5314
-0.15001,58344,3.5408,2.2377,0.29608,,8.616,-0.53116
-0.15003,58464,3.5391,2.2427,0.0,,8.6337,-0.53097
-0.15001,58584,3.5377,2.2477,0.0,,8.6514,-0.53069
-0.15002,58704,3.536,2.2527,0.0,,8.669,-0.53047
-0.15002,58823.975,3.5344,2.2577,0.0,3.1616,8.6867,-0.53023
-0.15001,58944,3.533,2.2627,0.0,0.0,8.7044,-0.52999
-0.15003,59064,3.5312,2.2677,0.0,0.0,8.7221,-0.52979
-0.15002,59184,3.5296,2.2727,,3.1353,8.7397,-0.52951
-0.15002,59304,3.5281,2.2777,,0.0,8.7574,-0.52929
-0.15002,59424,3.5263,2.2827,,0.0,8.775,-0.52902
-0.15003,59544,3.5247,2.2877,,3.0266,8.7926,-0.52881
-0.15002,59664,3.5229,2.2927,,0.0,8.8102,-0.52851
-0.15002,59783.974,3.5212,2.2977,,0.0,8.8279,-0.52825
-0.15002,59904,3.5198,2.3027,,3.0055,8.8455,-0.52804
-0.15003,60024,3.5179,2.3077,,0.0,8.8631,-0.52779
-0.15002,60143.975,3.5165,2.3127,,0.0,8.8806,-0.52755
-0.15002,60264,3.5147,2.3177,,3.0549,8.8982,-0.52728
-0.15002,60383.975,3.5131,2.3227,,0.0,8.9158,-0.52704
-0.15002,60504,3.5116,2.3277,,0.0,8.9334,-0.52681
-0.15001,60624,3.5099,2.3327,0.32274,3.0983,8.9509,-0.52652
-0.15002,60744,3.5086,2.3377,0.0,0.0,8.9685,-0.52636
-0.15002,60864,3.5068,2.3427,0.0,0.0,8.986,-0.52609
-0.15002,60984,3.5054,2.3477,0.0,0.0,9.0035,-0.52588
-0.15002,61103.974,3.5038,2.3527,0.0,,9.0211,-0.52564
-0.15002,61224,3.5022,2.3577,0.0,,9.0386,-0.5254
-0.15002,61344,3.5008,2.3627,0.31198,,9.0561,-0.52519
-0.15001,61464,3.4991,2.3677,0.0,,9.0736,-0.5249
-0.15001,61584,3.4977,2.3727,0.0,,9.0911,-0.52469
-0.15002,61704,3.4961,2.3777,0.0,,9.1086,-0.52448
-0.15002,61824,3.4943,2.3827,0.0,3.1782,9.126,-0.52421
-0.15002,61944,3.4929,2.3877,0.0,0.0,9.1435,-0.524
-0.15002,62064,3.491,2.3927,0.0,0.0,9.161,-0.52372
-0.15002,62184,3.4895,2.3977,,3.046,9.1784,-0.52349
-0.15002,62304,3.4877,2.4027,,0.0,9.1959,-0.52322
-0.15002,62424,3.4859,2.4077,,0.0,9.2133,-0.52295
-0.15001,62544,3.4843,2.4127,,,9.2307,-0.52268
-0.15002,62664,3.4822,2.4177,,,9.2482,-0.5224
-0.15002,62784,3.4805,2.4227,0.35915,,9.2656,-0.52214
-0.15001,62904,3.4785,2.4277,0.0,,9.283,-0.52181
-0.15001,63024,3.4764,2.4327,0.0,,9.3004,-0.52149
-0.15003,63144,3.4746,2.4377,0.0,2.5147,9.3177,-0.52129
-0.15001,63264,3.4723,2.4427,0.0,0.0,9.3351,-0.52088
-0.15002,63384,3.4704,2.4477,0.40244,0.0,9.3525,-0.52063
-0.15002,63504,3.4682,2.4528,0.0,,9.3698,-0.5203
-0.15002,63624,3.4659,2.4578,0.0,,9.3872,-0.51995
-0.15002,63744,3.4639,2.4628,0.0,,9.4045,-0.51965
-0.15002,63864,3.4617,2.4678,0.0,,9.4218,-0.51932
-0.15002,63983.975,3.4598,2.4728,0.42282,2.3416,9.4391,-0.51904
-0.15001,64103.974,3.4576,2.4778,0.0,0.0,9.4564,-0.51867
-0.15002,64224,3.4557,2.4828,0.0,0.0,9.4737,-0.51842
-0.15002,64344,3.4538,2.4878,0.0,,9.491,-0.51814
-0.15002,64464,3.4517,2.4928,0.0,,9.5082,-0.51782
-0.15002,64584,3.4498,2.4978,,2.5005,9.5255,-0.51754
-0.15002,64704,3.4476,2.5028,,0.0,9.5427,-0.51721
-0.15001,64824,3.4457,2.5078,0.0,0.0,9.56,-0.51689
-0.15002,64943.973,3.4435,2.5128,0.0,,9.5772,-0.51659
-0.15002,65064,3.4412,2.5178,0.0,,9.5944,-0.51625
-0.15002,65184,3.4391,2.5228,,2.2923,9.6116,-0.51593
-0.15002,65304,3.4367,2.5278,,0.0,9.6288,-0.51557
-0.15001,65424,3.4346,2.5328,,2.2415,9.646,-0.51522
-0.15001,65544,3.4324,2.5378,,0.0,9.6631,-0.51489
-0.15002,65664,3.4302,2.5428,0.43655,0.0,9.6803,-0.5146
-0.15003,65784,3.4283,2.5478,0.0,,9.6974,-0.51435
-0.15002,65904,3.4263,2.5528,0.0,,9.7146,-0.51401
-0.15002,66024,3.4245,2.5578,0.0,2.5862,9.7317,-0.51374
-0.15003,66144,3.4229,2.5628,0.0,0.0,9.7488,-0.51354
-0.15001,66263.974,3.4211,2.5678,0.0,0.0,9.7659,-0.5132
-0.15002,66384,3.4199,2.5728,,3.1207,9.7831,-0.51305
-0.15002,66504,3.4183,2.5778,,0.0,9.8001,-0.51281
-0.15002,66624,3.4171,2.5828,,0.0,9.8172,-0.51263
-0.15001,66744,3.416,2.5878,,0.0,9.8343,-0.51243
-0.15002,66864,3.4146,2.5928,,3.9067,9.8514,-0.51226
-0.15002,66984,3.4136,2.5978,,0.0,9.8685,-0.51211
-0.15002,67104,3.4123,2.6028,,0.0,9.8855,-0.51191
-0.15001,67224,3.4113,2.6078,,0.0,9.9026,-0.51173
-0.15001,67344,3.41,2.6128,,0.0,9.9197,-0.51153
-0.15002,67463.975,3.4089,2.6178,,,9.9367,-0.5114
-0.15001,67584,3.4079,2.6228,,,9.9537,-0.51122
-0.15001,67704,3.4065,2.6278,,,9.9708,-0.51101
-0.15002,67823.973,3.4056,2.6328,,,9.9878,-0.51091
-0.15002,67944,3.4042,2.6378,,,10.005,-0.5107
-0.15002,68064,3.403,2.6428,,,10.022,-0.51052
-0.15002,68184,3.402,2.6478,,,10.039,-0.51037
-0.15002,68304,3.4006,2.6528,0.23312,,10.056,-0.51016
-0.15002,68424,3.3995,2.6578,0.0,4.1176,10.073,-0.50999
-0.15002,68544,3.398,2.6628,0.0,0.0,10.09,-0.50977
-0.15002,68664,3.3968,2.6678,0.0,0.0,10.107,-0.50959
-0.15001,68784,3.3955,2.6728,,0.0,10.124,-0.50936
-0.15002,68904,3.394,2.6778,,,10.141,-0.50917
-0.15001,69024,3.3928,2.6828,,,10.158,-0.50895
-0.15001,69144,3.3912,2.6878,,,10.175,-0.50871
-0.15001,69264,3.3897,2.6928,,3.4424,10.192,-0.50849
-0.15002,69384,3.3883,2.6978,,0.0,10.209,-0.50831
-0.15001,69504,3.3866,2.7028,,0.0,10.226,-0.50802
-0.15001,69624,3.385,2.7078,,0.0,10.243,-0.50778
-0.15002,69744,3.3835,2.7128,,,10.259,-0.50759
-0.15001,69864,3.3817,2.7178,,,10.276,-0.50729
-0.15002,69984,3.38,2.7228,0.32252,2.9253,10.293,-0.50707
-0.15002,70104,3.3781,2.7278,0.0,0.0,10.31,-0.50678
-0.15001,70224,3.3763,2.7328,0.0,,10.327,-0.50648
-0.15002,70344,3.3744,2.7378,0.0,2.6939,10.344,-0.50623
-0.15002,70464,3.3723,2.7428,0.0,0.0,10.361,-0.50591
-0.15002,70584,3.3704,2.7478,0.38344,0.0,10.378,-0.50563
-0.15002,70704,3.368,2.7528,0.0,,10.395,-0.50527
-0.15001,70824,3.366,2.7578,0.0,,10.411,-0.50493
-0.15003,70944,3.3636,2.7628,0.0,,10.428,-0.50464
-0.15002,71064,3.3611,2.7678,0.0,,10.445,-0.50423
-0.15001,71184,3.3586,2.7728,,,10.462,-0.50382
-0.15002,71304,3.3558,2.7778,,,10.479,-0.50344
-0.15001,71424,3.353,2.7828,,,10.495,-0.50298
-0.15001,71544,3.3501,2.7878,0.55436,,10.512,-0.50255
-0.15001,71664,3.3467,2.7928,0.0,,10.529,-0.50204
-0.15001,71784,3.3433,2.7978,0.0,1.5347,10.546,-0.50153
-0.15002,71904,3.3394,2.8028,0.68948,1.2957,10.562,-0.50098
-0.15001,72024,3.3351,2.8078,0.0,0.0,10.579,-0.5003
-0.15002,72144,3.3305,2.8128,0.88828,,10.596,-0.49964
-0.15002,72264,3.3249,2.8178,0.0,,10.612,-0.4988
-0.15001,72383.973,3.3189,2.8228,1.128,0.84092,10.629,-0.49787
-0.15002,72504,3.3121,2.8278,0.0,0.75634,10.645,-0.49688
-0.15003,72624,3.3042,2.8328,,0.63413,10.662,-0.49573
-0.15002,72743.974,3.296,2.8378,,0.6072,10.679,-0.49447
-0.15002,72864,3.2868,2.8428,1.7505,0.56164,10.695,-0.49309
-0.15002,72984,3.2774,2.8478,1.873,0.52546,10.711,-0.49168
-0.15002,73104,3.2674,2.8528,1.9813,0.49862,10.728,-0.49018
-0.15001,73224,3.257,2.8578,2.0297,0.47937,10.744,-0.48858
-0.15001,73343.973,3.2462,2.8628,2.1454,0.46539,10.76,-0.48696
-0.15002,73464,3.2349,2.8678,2.1989,0.44881,10.777,-0.4853
-0.15002,73584,3.2234,2.8728,,0.42846,10.793,-0.48357
-0.15003,73704,3.2111,2.8778,,0.41225,10.809,-0.48176
-0.15002,73824,3.1984,2.8828,2.5267,0.39448,10.825,-0.47982
-0.15003,73944,3.1853,2.8878,2.6118,0.37814,10.841,-0.47789
-0.15002,74064,3.1714,2.8928,,0.36415,10.857,-0.47577
-0.15002,74184,3.157,2.8978,2.8882,0.34331,10.872,-0.47361
-0.15002,74304,3.1419,2.9028,,0.32798,10.888,-0.47135
-0.15002,74424,3.1258,2.9078,3.1671,0.31268,10.904,-0.46893
-0.15001,74544,3.109,2.9128,3.3799,0.28831,10.919,-0.46638
-0.15002,74664,3.0909,2.9178,,0.27459,10.935,-0.4637
-0.15002,74784,3.0719,2.9228,3.7725,0.25674,10.95,-0.46085
-0.15002,74904,3.0516,2.9278,4.0211,0.24133,10.966,-0.4578
-0.15002,75024,3.0294,2.9328,4.4817,0.22459,10.981,-0.45447
-0.15002,75144,3.0058,2.9378,4.7858,0.20573,10.996,-0.45093
-0.15001,75264,2.9795,2.9428,5.3685,0.1883,11.011,-0.44695
-0.15002,75384,2.9507,2.9478,5.7764,0.16887,11.026,-0.44266
-0.15001,75504,2.9185,2.9528,6.662,0.1469,11.04,-0.4378
-0.15001,75624,2.8814,2.9578,7.5536,0.12631,11.055,-0.43224
-0.15002,75744,2.8361,2.9628,9.8995,0.099371,11.069,-0.42547
-0.15001,75864,2.7638,2.9678,18.541,0.052731,11.083,-0.4146
-0.15003,75983.973,2.6491,2.9728,23.3,0.043453,11.097,-0.39744
-0.15003,76103.973,2.5393,2.9778,20.717,0.048942,11.11,-0.38097
-0.14987,76151.4,2.5011,2.9798,19.612,0.051096,11.115,-0.37484