File: Data/monotonic_segments/Cycle 72_charge.csv
Current(A),Test_Time(s),Voltage(V),Charge_Capacity(Ah),dV/dQ(V/Ah),dQ/dV(Ah/V),Charge_Energy(Wh),Power(W)
0.14999,1043.66,4.2001,0.021738,0.0,0.0,0.091301,0.62997
0.14999,80291.5,3.0283,0.022499,5.7883,0.17917,0.066393,0.45421
0.14998,80411.508,3.0543,0.027499,5.1215,0.19748,0.0816,0.45808
0.14999,80531.5,3.0781,0.032498,4.7219,0.21959,0.09693,0.46168
0.14999,80651.5,3.0997,0.037498,4.3759,0.23721,0.11237,0.46492
0.14999,80771.5,3.1196,0.042497,4.0481,0.25648,0.12792,0.46791
0.14999,80891.5,3.1383,0.047497,3.744,0.27469,0.14356,0.47071
0.14999,81011.5,3.1554,0.052496,3.4614,0.29175,0.1593,0.47328
0.14999,81131.5,3.1717,0.057496,,0.30917,0.17512,0.47572
0.14999,81251.5,3.1871,0.062496,3.0976,0.32485,0.19101,0.47803
0.14999,81371.5,3.2015,0.067495,,0.34327,0.20698,0.48019
0.14999,81491.5,3.2154,0.072495,2.7585,0.36459,0.22302,0.48228
0.14999,81611.507,3.2285,0.077494,2.6628,0.385,0.23913,0.48424
0.14999,81731.5,3.2407,0.082494,,0.40182,0.2553,0.48607
0.15,81851.5,3.2528,0.087493,2.3692,0.42334,0.27154,0.48792
0.14998,81971.5,3.2639,0.092493,2.2818,0.44076,0.28783,0.48952
0.14999,82091.5,3.2749,0.097493,2.1989,0.46187,0.30417,0.4912
0.14999,82211.5,3.2854,0.10249,2.112,0.47754,0.32057,0.49278
0.14999,82331.5,3.2953,0.10749,2.0258,0.49791,0.33702,0.49426
0.14999,82451.5,3.305,0.11249,1.9523,0.51904,0.35352,0.49572
0.14999,82571.5,3.3141,0.11749,1.867,0.54238,0.37007,0.49708
0.14999,82691.5,3.3232,0.12249,1.7894,0.57189,0.38666,0.49845
0.14999,82811.5,3.3316,0.12749,0.0,0.57982,0.4033,0.49971
0.14998,82931.5,3.3396,0.13249,,0.61396,0.41997,0.50087
0.14999,83051.5,3.3474,0.13749,,,0.43669,0.50208
0.14998,83171.509,3.3544,0.14249,1.4851,0.69044,0.45344,0.50309
0.14999,83291.5,3.3611,0.14749,0.0,,0.47023,0.50413
0.14999,83411.5,3.3668,0.15249,,,0.48705,0.50499
0.14999,83531.5,3.3718,0.15749,,,0.5039,0.50574
0.14999,83651.5,3.376,0.16249,,,0.52076,0.50637
0.14999,83771.5,3.3792,0.16749,,,0.53765,0.50685
0.14999,83891.5,3.382,0.17249,,,0.55455,0.50727
0.14997,84011.5,3.3842,0.17749,,,0.57147,0.50753
0.14998,84131.5,3.3862,0.18249,,,0.58839,0.50786
0.14999,84251.5,3.3882,0.18749,,2.4154,0.60533,0.5082
0.14999,84371.5,3.39,0.19248,,0.0,0.62227,0.50847
0.14999,84491.507,3.3915,0.19748,,0.0,0.63922,0.50869
0.14999,84611.5,3.3934,0.20248,,2.8761,0.65619,0.50898
0.14999,84731.5,3.3949,0.20748,,0.0,0.67315,0.5092
0.14999,84851.5,3.3966,0.21248,,0.0,0.69013,0.50946
0.14999,84971.5,3.398,0.21748,,3.1348,0.70712,0.50967
0.14999,85091.5,3.3996,0.22248,,0.0,0.72411,0.50991
0.14999,85211.506,3.4012,0.22748,,0.0,0.74111,0.51015
0.14999,85331.5,3.4026,0.23248,0.31183,3.2982,0.75812,0.51036
0.14999,85451.5,3.4041,0.23748,0.0,0.0,0.77513,0.51058
0.14998,85571.5,3.4056,0.24248,0.0,0.0,0.79216,0.51077
0.14999,85691.5,3.4069,0.24748,0.0,0.0,0.80919,0.511
0.14999,85811.507,3.4084,0.25248,0.0,,0.82622,0.51123
0.14998,85931.5,3.4096,0.25748,0.0,,0.84327,0.51137
0.14999,86051.507,3.4111,0.26248,0.0,,0.86032,0.51163
0.14999,86171.5,3.4123,0.26748,0.28105,,0.87737,0.51181
0.14999,86291.5,3.4137,0.27248,0.0,,0.89444,0.51202
0.14998,86411.507,3.4151,0.27748,0.0,,0.91151,0.5122
0.14998,86531.5,3.4162,0.28248,0.0,,0.92858,0.51236
0.14999,86651.5,3.4176,0.28748,0.0,3.8443,0.94567,0.51261
0.14998,86771.5,3.419,0.29248,0.0,0.0,0.96276,0.51278
0.14998,86891.5,3.4201,0.29748,0.0,0.0,0.97985,0.51295
0.14999,87011.5,3.4215,0.30248,0.0,,0.99696,0.51319
0.14998,87131.507,3.4226,0.30748,0.25738,3.9374,1.0141,0.51332
0.14997,87251.5,3.4239,0.31248,0.0,0.0,1.0312,0.51348
0.14999,87371.5,3.4253,0.31747,0.0,0.0,1.0483,0.51376
0.14999,87491.5,3.4264,0.32247,0.0,0.0,1.0654,0.51393
0.15,87611.5,3.4279,0.32747,0.0,3.9468,1.0826,0.51419
0.14998,87731.5,3.429,0.33247,0.0,0.0,1.0997,0.51428
0.14998,87851.5,3.4301,0.33747,0.0,0.0,1.1169,0.51445
0.14999,87971.5,3.4318,0.34247,0.0,0.0,1.134,0.51474
0.14998,88091.5,3.4329,0.34747,,3.8227,1.1512,0.51487
0.14999,88211.5,3.4345,0.35247,,0.0,1.1683,0.51514
0.15,88331.506,3.4357,0.35747,,0.0,1.1855,0.51536
0.14999,88451.5,3.4371,0.36247,,0.0,1.2027,0.51553
0.14999,88571.5,3.4387,0.36747,,,1.2199,0.51577
0.14998,88691.5,3.44,0.37247,,,1.2371,0.51593
0.14999,88811.5,3.4416,0.37747,,,1.2543,0.51621
0.14999,88931.5,3.443,0.38247,,3.3809,1.2715,0.51642
0.14999,89051.5,3.4446,0.38747,,0.0,1.2887,0.51666
0.14998,89171.5,3.4463,0.39247,,0.0,1.3059,0.51688
0.14999,89291.5,3.4477,0.39747,,3.1515,1.3232,0.51712
0.14999,89411.5,3.4496,0.40247,,0.0,1.3404,0.51741
0.14999,89531.509,3.4511,0.40747,,0.0,1.3577,0.51763
0.14998,89651.5,3.453,0.41247,0.32649,2.9356,1.3749,0.51788
0.14999,89771.5,3.4548,0.41747,0.0,0.0,1.3922,0.51819
0.14998,89891.5,3.4565,0.42247,0.0,0.0,1.4095,0.51841
0.15,90011.5,3.4585,0.42747,0.0,2.7743,1.4267,0.51878
0.14998,90131.5,3.4602,0.43247,0.0,0.0,1.444,0.51896
0.14998,90251.5,3.4621,0.43746,0.0,0.0,1.4613,0.51925
0.14999,90371.5,3.4642,0.44246,,,1.4787,0.5196
0.14998,90491.5,3.466,0.44746,,,1.496,0.51983
0.14999,90611.5,3.468,0.45246,,2.561,1.5133,0.52017
0.14998,90731.5,3.4701,0.45746,,0.0,1.5307,0.52045
0.14998,90851.5,3.4719,0.46246,,0.0,1.548,0.52072
0.15,90971.5,3.4741,0.46746,,,1.5654,0.52112
0.14999,91091.5,3.476,0.47246,,,1.5827,0.52137
0.14999,91211.508,3.478,0.47746,,2.4903,1.6001,0.52167
0.14998,91331.5,3.4801,0.48246,,0.0,1.6175,0.52195
0.14998,91451.508,3.4819,0.48746,,0.0,1.6349,0.52222
0.14999,91571.5,3.484,0.49246,,,1.6523,0.52257
0.14999,91691.5,3.486,0.49746,,,1.6698,0.52287
0.14999,91811.5,3.4878,0.50246,,2.5675,1.6872,0.52314
0.14999,91931.5,3.4899,0.50746,,0.0,1.7046,0.52345
0.14998,92051.5,3.4917,0.51246,,0.0,1.7221,0.52369
0.14999,92171.5,3.4936,0.51746,,,1.7396,0.52401
0.14998,92291.506,3.4957,0.52246,,,1.757,0.52429
0.14999,92411.5,3.4976,0.52746,,2.5492,1.7745,0.52461
0.14998,92531.5,3.4997,0.53246,,0.0,1.792,0.52489
0.14999,92651.5,3.5018,0.53746,,0.0,1.8095,0.52523
0.14998,92771.5,3.5037,0.54246,,,1.827,0.52548
0.14998,92891.5,3.506,0.54745,,,1.8445,0.52583
0.14998,93011.5,3.5079,0.55245,,2.382,1.8621,0.52611
0.14998,93131.5,3.5102,0.55745,,0.0,1.8796,0.52646
0.14999,93251.5,3.5122,0.56245,,0.0,1.8972,0.52679
0.14999,93371.5,3.5141,0.56745,,,1.9147,0.52708
0.14998,93491.5,3.5162,0.57245,,,1.9323,0.52736
0.14999,93611.5,3.5179,0.57745,,2.5266,1.9499,0.52765
0.14998,93731.5,3.5198,0.58245,,0.0,1.9675,0.5279
0.14997,93851.5,3.5217,0.58745,,0.0,1.9851,0.52815
0.14999,93971.5,3.5233,0.59245,,2.8124,2.0027,0.52846
0.14998,94091.5,3.5252,0.59745,,0.0,2.0203,0.52871
0.14999,94211.5,3.5267,0.60245,,0.0,2.0379,0.52897
0.14999,94331.5,3.5284,0.60745,,2.9053,2.0556,0.52922
0.14999,94451.5,3.5303,0.61245,,0.0,2.0732,0.52951
0.14999,94571.5,3.5319,0.61745,,0.0,2.0909,0.52975
0.14998,94691.5,3.5339,0.62245,,,2.1085,0.53001
0.14998,94811.5,3.5356,0.62745,,,2.1262,0.53027
0.14999,94931.5,3.5374,0.63245,,,2.1439,0.53057
0.14999,95051.506,3.5396,0.63745,,,2.1616,0.5309
0.14999,95171.506,3.5414,0.64245,,,2.1793,0.53117
0.14999,95291.5,3.5436,0.64745,,2.5238,2.197,0.5315
0.14998,95411.5,3.5455,0.65244,,0.0,2.2147,0.53175
0.14999,95531.5,3.5478,0.65744,,0.0,2.2324,0.53213
0.14998,95651.506,3.5497,0.66244,,,2.2502,0.53238
0.14999,95771.5,3.5518,0.66744,,,2.2679,0.53273
0.14999,95891.507,3.5539,0.67244,,,2.2857,0.53305
0.14998,96011.506,3.5558,0.67744,,,2.3035,0.5333
0.14998,96131.5,3.5577,0.68244,,2.5625,2.3213,0.53358
0.14999,96251.5,3.5596,0.68744,,0.0,2.3391,0.5339
0.14999,96371.5,3.5611,0.69244,,,2.3569,0.53413
0.14999,96491.5,3.5629,0.69744,0.36703,2.9457,2.3747,0.5344
0.14998,96611.5,3.5642,0.70244,0.0,0.0,2.3925,0.53456
0.14999,96731.5,3.5657,0.70744,0.0,0.0,2.4103,0.53482
0.14998,96851.5,3.5672,0.71244,0.0,0.0,2.4281,0.53501
0.14999,96971.5,3.5684,0.71744,0.0,,2.446,0.53522
0.14998,97091.5,3.5698,0.72244,0.0,,2.4638,0.5354
0.14999,97211.5,3.5709,0.72744,0.0,,2.4817,0.5356
0.14998,97331.5,3.5723,0.73244,0.27467,,2.4995,0.53577
0.14998,97451.508,3.5736,0.73744,0.0,,2.5174,0.53597
0.14999,97571.5,3.5748,0.74244,0.0,,2.5352,0.53618
0.14997,97691.5,3.5762,0.74744,0.0,,2.5531,0.53632
0.14998,97811.5,3.5773,0.75244,0.0,,2.571,0.53652
0.14999,97931.5,3.5787,0.75743,0.0,,2.5889,0.53677
0.14999,98051.5,3.5799,0.76243,0.0,,2.6068,0.53695
0.14999,98171.507,3.581,0.76743,,,2.6247,0.53711
0.15,98291.5,3.5825,0.77243,0.25144,,2.6426,0.53738
0.14999,98411.5,3.5836,0.77743,0.0,,2.6605,0.5375
0.14998,98531.508,3.5849,0.78243,0.0,,2.6784,0.53766
0.14999,98651.5,3.5862,0.78743,0.0,,2.6964,0.53789
0.14998,98771.5,3.5873,0.79243,0.0,,2.7143,0.53802
0.14999,98891.5,3.5886,0.79743,0.0,,2.7322,0.53825
0.14998,99011.5,3.5896,0.80243,0.0,,2.7502,0.53837
0.14999,99131.5,3.591,0.80743,0.0,,2.7681,0.53861
0.14999,99251.5,3.5921,0.81243,0.0,,2.7861,0.53878
0.14998,99371.507,3.5931,0.81743,,4.2037,2.804,0.53889
0.14999,99491.5,3.5944,0.82243,,0.0,2.822,0.53912
0.14999,99611.508,3.5954,0.82743,,0.0,2.84,0.53927
0.14999,99731.5,3.5966,0.83243,,0.0,2.858,0.53945
0.14998,99851.506,3.5976,0.83743,,0.0,2.8759,0.53957
0.14999,99971.5,3.5986,0.84243,,,2.8939,0.53975
0.14999,100092,3.5998,0.84743,,,2.9119,0.53993
0.14999,100212,3.6008,0.85242,,,2.9299,0.54008
0.14998,100332,3.6019,0.85742,,,2.9479,0.54021
0.14999,100452,3.6029,0.86242,,4.7617,2.9659,0.5404
0.14998,100572,3.6038,0.86742,,0.0,2.9839,0.5405
0.14998,100692,3.6051,0.87242,,0.0,3.002,0.54069
0.14998,100812,3.6059,0.87742,,0.0,3.02,0.54081
0.14999,100932,3.6071,0.88242,,0.0,3.038,0.54103
0.14999,101052,3.608,0.88742,,4.8228,3.0561,0.54116
0.14998,101172,3.609,0.89242,,0.0,3.0741,0.54128
0.14999,101292,3.6102,0.89742,,0.0,3.0921,0.54149
0.14998,101412,3.6111,0.90242,,0.0,3.1102,0.54159
0.14998,101532,3.6123,0.90742,,0.0,3.1283,0.54177
0.14998,101652,3.6131,0.91242,,4.8808,3.1463,0.54189
0.14998,101772,3.6141,0.91742,,0.0,3.1644,0.54204
0.14999,101892,3.6153,0.92242,,0.0,3.1825,0.54226
0.14999,102012,3.6161,0.92742,,0.0,3.2005,0.54238
0.14999,102132,3.6171,0.93242,,0.0,3.2186,0.54253
0.14997,102252,3.6183,0.93742,,4.9856,3.2367,0.54264
0.14998,102372,3.6191,0.94242,,0.0,3.2548,0.54279
0.14998,102492,3.6203,0.94742,,0.0,3.2729,0.54297
0.14998,102612,3.6213,0.95241,,0.0,3.291,0.54312
0.14998,102731.509,3.6221,0.95741,,0.0,3.3091,0.54324
0.14999,102852,3.6233,0.96241,,4.9711,3.3272,0.54346
0.14998,102972,3.6241,0.96741,,0.0,3.3453,0.54354
0.14998,103091.508,3.6253,0.97241,,0.0,3.3634,0.54372
0.14999,103212,3.6262,0.97741,,0.0,3.3816,0.54389
0.14998,103332,3.6271,0.98241,,0.0,3.3997,0.54399
0.14999,103452,3.6283,0.98741,,5.0367,3.4178,0.54421
0.14998,103572,3.6291,0.99241,,0.0,3.436,0.54429
0.14998,103692,3.6302,0.99741,,0.0,3.4541,0.54446
0.14998,103812,3.6311,1.0024,,0.0,3.4723,0.54459
0.14997,103932,3.6321,1.0074,,0.0,3.4904,0.54471
0.14999,104051.506,3.6332,1.0124,,5.0456,3.5086,0.54494
0.14998,104172,3.6341,1.0174,,0.0,3.5268,0.54504
0.14998,104292,3.6352,1.0224,,0.0,3.5449,0.54521
0.14998,104412,3.636,1.0274,,0.0,3.5631,0.54533
0.14998,104532,3.6371,1.0324,,0.0,3.5813,0.54549
0.14998,104652,3.6381,1.0374,,5.0178,3.5995,0.54564
0.14999,104772,3.639,1.0424,,0.0,3.6177,0.54581
0.14998,104891.508,3.6402,1.0474,,0.0,3.6359,0.54596
0.14998,105012,3.641,1.0524,,0.0,3.6541,0.54608
0.14999,105132,3.6421,1.0574,,0.0,3.6723,0.54628
0.14998,105252,3.6431,1.0624,,5.0209,3.6905,0.54639
0.14998,105371.507,3.644,1.0674,,0.0,3.7087,0.54653
0.14998,105492,3.6452,1.0724,,0.0,3.7269,0.54671
0.15,105612,3.646,1.0774,,0.0,3.7451,0.5469
0.14998,105732,3.6471,1.0824,,0.0,3.7634,0.54699
0.14999,105852,3.6482,1.0874,,4.9474,3.7816,0.54719
0.14999,105972,3.649,1.0924,,0.0,3.7999,0.54731
0.14998,106092,3.6503,1.0974,,0.0,3.8181,0.54747
0.14998,106212,3.6511,1.1024,,0.0,3.8364,0.54759
0.14998,106332,3.6523,1.1074,,0.0,3.8546,0.54777
0.14997,106452,3.6533,1.1124,,4.888,3.8729,0.54789
0.14999,106572,3.6542,1.1174,,0.0,3.8911,0.54809
0.14998,106692,3.6554,1.1224,,0.0,3.9094,0.54824
0.14998,106812,3.6563,1.1274,,0.0,3.9277,0.54837
0.14998,106932,3.6574,1.1324,,0.0,3.946,0.54854
0.14999,107052,3.6586,1.1374,,,3.9643,0.54875
0.14999,107172,3.6595,1.1424,,,3.9826,0.54889
0.14998,107292,3.6607,1.1474,,,4.0009,0.54903
0.14999,107412,3.6616,1.1524,,,4.0192,0.5492
0.14999,107532,3.6628,1.1574,0.21066,4.6777,4.0375,0.54938
0.14999,107652,3.6639,1.1624,0.0,0.0,4.0558,0.54955
0.14999,107772,3.6649,1.1674,0.0,0.0,4.0741,0.5497
0.14999,107892,3.6661,1.1724,0.0,,4.0924,0.54988
0.14999,108012,3.6673,1.1774,0.0,,4.1108,0.55006
0.14998,108132,3.6682,1.1824,0.0,4.5525,4.1291,0.55016
0.14999,108252,3.6695,1.1874,0.0,0.0,4.1474,0.55039
0.14998,108372,3.6705,1.1924,0.0,0.0,4.1658,0.5505
0.14998,108492,3.6716,1.1974,0.0,0.0,4.1841,0.55067
0.14999,108612,3.6729,1.2024,0.22207,4.4388,4.2025,0.5509
0.14998,108732,3.6739,1.2074,0.0,0.0,4.2209,0.55101
0.14998,108852,3.6752,1.2124,0.0,0.0,4.2392,0.55121
0.14999,108972,3.6762,1.2174,0.0,0.0,4.2576,0.55139
0.14999,109091.508,3.6774,1.2224,0.0,,4.276,0.55157
0.14999,109212,3.6787,1.2274,0.0,,4.2944,0.55177
0.14998,109332,3.6798,1.2324,0.0,,4.3128,0.5519
0.14999,109452,3.6812,1.2374,0.0,,4.3312,0.55214
0.14998,109572,3.6823,1.2424,0.0,,4.3496,0.55227
0.14999,109692,3.6834,1.2474,,,4.368,0.55247
0.14999,109812,3.6849,1.2524,,,4.3864,0.5527
0.14999,109932,3.6859,1.2574,,,4.4048,0.55285
0.14997,110052,3.6874,1.2624,,,4.4233,0.553
0.14998,110171.507,3.6885,1.2674,,,4.4417,0.5532
0.14998,110291.506,3.6899,1.2724,,,4.4602,0.55341
0.14999,110412,3.6912,1.2774,,,4.4786,0.55364
0.14998,110532,3.6924,1.2824,0.25368,,4.4971,0.55379
0.14998,110652,3.6938,1.2874,0.0,,4.5155,0.554
0.14999,110772,3.6951,1.2924,0.0,,4.534,0.55423
0.14998,110892,3.6965,1.2974,0.0,,4.5525,0.5544
0.14998,111012,3.6978,1.3024,0.0,3.7265,4.571,0.5546
0.14999,111132,3.6992,1.3074,0.0,0.0,4.5894,0.55484
0.14999,111251.508,3.7006,1.3124,0.0,0.0,4.6079,0.55505
0.15,111372,3.7019,1.3174,0.0,,4.6265,0.55529
0.14999,111492,3.7035,1.3224,,3.626,4.645,0.55549
0.14998,111612,3.7049,1.3274,,0.0,4.6635,0.55566
0.14998,111732,3.7061,1.3324,,0.0,4.682,0.55584
0.14998,111852,3.7077,1.3374,,0.0,4.7005,0.55608
0.14998,111971.507,3.709,1.3424,,,4.7191,0.55628
0.14999,112091.506,3.7106,1.3474,,,4.7376,0.55655
0.14998,112212,3.7121,1.3524,,,4.7562,0.55674
0.14998,112332,3.7135,1.3574,,3.4092,4.7747,0.55695
0.15,112452,3.7152,1.3624,,0.0,4.7933,0.55728
0.14999,112572,3.7165,1.3674,,0.0,4.8119,0.55744
0.14998,112692,3.7181,1.3724,,3.2973,4.8305,0.55764
0.14999,112812,3.7197,1.3774,,0.0,4.8491,0.55792
0.14999,112932,3.7211,1.3824,,0.0,4.8677,0.55813
0.14999,113052,3.7228,1.3874,0.30427,0.0,4.8863,0.55838
0.14998,113171.506,3.7242,1.3924,0.0,,4.9049,0.55856
0.14999,113292,3.7259,1.3974,0.0,,4.9235,0.55885
0.14998,113411.507,3.7274,1.4024,0.0,,4.9421,0.55904
0.14999,113531.506,3.7289,1.4074,0.0,,4.9608,0.5593
0.14998,113652,3.7307,1.4124,0.0,,4.9794,0.55953
0.14998,113772,3.7321,1.4174,0.0,,4.9981,0.55974
0.14998,113892,3.7339,1.4224,,,5.0167,0.56001
0.14998,114012,3.7354,1.4274,,,5.0354,0.56024
0.14998,114132,3.7371,1.4324,,,5.0541,0.56049
0.14999,114252,3.7388,1.4374,,,5.0728,0.56078
0.14998,114372,3.7403,1.4424,,,5.0915,0.56097
0.14998,114492,3.7421,1.4474,,,5.1102,0.56124
0.14998,114612,3.7436,1.4524,,,5.1289,0.56147
0.14998,114732,3.7453,1.4574,,,5.1476,0.56172
0.14998,114852,3.7471,1.4624,,,5.1663,0.56199
0.14998,114972,3.7486,1.4674,,3.0321,5.1851,0.56222
0.14999,115092,3.7504,1.4724,,0.0,5.2038,0.56252
0.14998,115212,3.7519,1.4774,,0.0,5.2226,0.56271
0.14998,115332,3.7537,1.4824,,,5.2413,0.56298
0.14999,115451.506,3.7554,1.4874,,,5.2601,0.56327
0.14998,115571.508,3.7569,1.4924,,0.0,5.2789,0.56346
0.14998,115692,3.7587,1.4974,,3.015,5.2977,0.56373
0.14998,115811.506,3.7602,1.5024,,0.0,5.3165,0.56395
0.14998,115932,3.7621,1.5074,,0.0,5.3353,0.56424
0.14998,116051.506,3.7637,1.5124,,3.0003,5.3541,0.56448
0.14998,116172,3.7652,1.5174,,0.0,5.3729,0.5647
0.14998,116292,3.767,1.5224,,0.0,5.3917,0.56497
0.14997,116411.506,3.7686,1.5274,,2.9964,5.4106,0.56518
0.14998,116532,3.7703,1.5324,,0.0,5.4294,0.56547
0.14998,116651.507,3.772,1.5374,,0.0,5.4483,0.56572
0.14998,116772,3.7735,1.5424,,3.0056,5.4671,0.56595
0.14999,116891.507,3.7754,1.5474,,0.0,5.486,0.56627
0.14998,117012,3.7769,1.5524,,0.0,5.5049,0.56646
0.14999,117132,3.7785,1.5574,,3.0249,5.5238,0.56674
0.14998,117252,3.7803,1.5624,,0.0,5.5427,0.56697
0.14999,117372,3.7819,1.5674,,0.0,5.5616,0.56725
0.14998,117492,3.7836,1.5724,,3.0309,5.5805,0.56746
0.14998,117612,3.7851,1.5774,,0.0,5.5994,0.56769
0.14998,117732,3.787,1.5824,,0.0,5.6183,0.56797
0.14998,117851.508,3.7885,1.5873,,3.0263,5.6373,0.5682
0.14999,117972,3.79,1.5923,,0.0,5.6562,0.56846
0.14999,118092,3.7919,1.5973,,0.0,5.6752,0.56875
0.14999,118212,3.7934,1.6023,,3.0351,5.6941,0.56897
0.14998,118332,3.7952,1.6073,,0.0,5.7131,0.5692
0.14999,118452,3.7968,1.6123,,0.0,5.7321,0.56948
0.14999,118572,3.7983,1.6173,,3.019,5.7511,0.56971
0.14998,118692,3.8001,1.6223,,0.0,5.77,0.56994
0.14998,118812,3.8016,1.6273,,0.0,5.7891,0.57016
0.14998,118932,3.8035,1.6323,,2.9848,5.8081,0.57045
0.14998,119052,3.8052,1.6373,,0.0,5.8271,0.5707
0.14999,119172,3.8067,1.6423,,0.0,5.8461,0.57097
0.14998,119292,3.8086,1.6473,,2.9796,5.8651,0.57121
0.14997,119412,3.8101,1.6523,,0.0,5.8842,0.5714
0.14998,119532,3.8118,1.6573,,0.0,5.9032,0.57169
0.14998,119652,3.8137,1.6623,,2.9094,5.9223,0.57198
0.14998,119772,3.8153,1.6673,,0.0,5.9414,0.57222
0.14998,119892,3.8172,1.6723,,0.0,5.9605,0.5725
0.14998,120012,3.8189,1.6773,,,5.9795,0.57276
0.14999,120132,3.8207,1.6823,,,5.9986,0.57307
0.14999,120252,3.8227,1.6873,0.35743,,6.0177,0.57337
0.14998,120372,3.8244,1.6923,0.0,,6.0369,0.57358
0.14998,120491.508,3.8265,1.6973,0.0,,6.056,0.5739
0.14999,120612,3.8283,1.7023,0.0,2.5931,6.0751,0.57421
0.14999,120732,3.8304,1.7073,0.0,0.0,6.0943,0.57452
0.14998,120852,3.8325,1.7123,0.39314,0.0,6.1134,0.5748
0.14998,120972,3.8345,1.7173,0.0,,6.1326,0.5751
0.14999,121092,3.8368,1.7223,0.0,,6.1518,0.57548
0.14998,121212,3.8389,1.7273,0.0,2.2917,6.1709,0.57576
0.14999,121332,3.8415,1.7323,0.0,0.0,6.1901,0.57619
0.14998,121452,3.8439,1.7373,,2.1208,6.2094,0.57651
0.14999,121572,3.8462,1.7423,,0.0,6.2286,0.57689
0.14998,121691.507,3.8489,1.7473,,1.9921,6.2478,0.57726
0.14999,121812,3.8514,1.7523,,0.0,6.2671,0.57767
0.14999,121932,3.854,1.7573,,1.9436,6.2863,0.57806
0.14998,122052,3.8566,1.7623,,0.0,6.3056,0.57841
0.14998,122172,3.8589,1.7673,,1.9551,6.3249,0.57876
0.14998,122292,3.8615,1.7723,,0.0,6.3442,0.57915
0.14998,122412,3.8636,1.7773,,2.1552,6.3635,0.57946
0.14998,122532,3.8656,1.7823,,0.0,6.3828,0.57976
0.14998,122652,3.8677,1.7873,,0.0,6.4021,0.58008
0.14998,122772,3.8694,1.7923,,,6.4215,0.58033
0.14998,122892,3.8713,1.7973,,,6.4408,0.58062
0.14999,123012,3.8728,1.8023,0.38045,,6.4602,0.58088
0.14999,123132,3.8745,1.8073,0.0,,6.4796,0.58114
0.14999,123251.509,3.8759,1.8123,0.0,,6.4989,0.58135
0.14999,123372,3.8774,1.8173,0.0,,6.5183,0.58157
0.14998,123492,3.8789,1.8223,0.0,,6.5377,0.58176
0.14999,123611.506,3.88,1.8273,0.0,,6.5571,0.58196
0.14999,123732,3.8815,1.8323,0.0,,6.5765,0.58219
0.14999,123852,3.8828,1.8373,0.28666,,6.5959,0.58238
0.14998,123972,3.8839,1.8423,0.0,,6.6153,0.58251
0.14998,124092,3.8854,1.8473,0.0,,6.6347,0.58273
0.14998,124212,3.8865,1.8523,0.0,,6.6542,0.5829
0.14999,124332,3.8878,1.8573,0.0,,6.6736,0.58313
0.14999,124452,3.8891,1.8623,0.0,,6.6931,0.58333
0.14999,124572,3.8901,1.8673,0.0,,6.7125,0.58348
0.14999,124692,3.8914,1.8723,0.0,,6.7319,0.58367
0.14997,124812,3.8925,1.8773,0.24424,,6.7514,0.58376
0.14998,124932,3.8936,1.8823,0.0,,6.7709,0.58396
0.14998,125052,3.8949,1.8873,0.0,,6.7903,0.58416
0.14999,125171.507,3.8959,1.8923,0.0,,6.8098,0.58435
0.14999,125292,3.8971,1.8973,0.0,,6.8293,0.58453
0.14997,125412,3.8981,1.9023,0.0,4.4479,6.8488,0.5846
0.14999,125532,3.8993,1.9073,0.0,0.0,6.8683,0.58486
0.14998,125652,3.9004,1.9123,0.0,0.0,6.8878,0.58498
0.14998,125772,3.9013,1.9173,0.0,0.0,6.9073,0.58512
0.14998,125892,3.9026,1.9223,0.22101,0.0,6.9268,0.58531
0.14998,126012,3.9034,1.9273,0.0,,6.9463,0.58543
0.14998,126132,3.9045,1.9323,0.0,,6.9658,0.5856
0.15,126251.507,3.9057,1.9373,0.0,,6.9853,0.58586
0.14998,126372,3.9066,1.9423,0.0,,7.0049,0.58591
0.14998,126492,3.9076,1.9473,0.0,,7.0244,0.58606
0.14998,126612,3.9088,1.9523,0.0,,7.0439,0.58624
0.14998,126732,3.9096,1.9573,0.0,,7.0635,0.58636
0.14998,126852,3.9108,1.9623,0.0,,7.083,0.58654
0.14998,126972,3.9117,1.9673,0.0,,7.1026,0.58668
0.14998,127092,3.9127,1.9723,0.20737,,7.1221,0.58683
0.14997,127211.506,3.9139,1.9773,0.0,,7.1417,0.58697
0.14999,127332,3.9148,1.9823,0.0,,7.1613,0.58718
0.14999,127452,3.916,1.9873,0.0,,7.1808,0.58736
0.14998,127572,3.9168,1.9923,0.0,,7.2004,0.58744
0.14998,127692,3.9178,1.9973,0.0,,7.22,0.58759
0.14999,127812,3.9191,2.0023,0.0,,7.2396,0.58783
0.14998,127932,3.9199,2.0073,0.0,,7.2592,0.58791
0.14998,128052,3.9212,2.0123,0.0,,7.2788,0.5881
0.14998,128172,3.9221,2.0173,0.0,,7.2984,0.58824
0.14998,128292,3.9231,2.0223,,4.7226,7.318,0.58839
0.14999,128412,3.9244,2.0273,,0.0,7.3376,0.58862
0.14998,128532,3.9253,2.0323,,0.0,7.3572,0.58872
0.14997,128651.508,3.9266,2.0373,,0.0,7.3769,0.58887
0.14999,128772,3.9277,2.0423,,0.0,7.3965,0.58912
0.14998,128892,3.9287,2.0473,,,7.4161,0.58923
0.14999,129012,3.9301,2.0523,,,7.4358,0.58948
0.14997,129132,3.931,2.0573,,,7.4554,0.58953
0.14997,129252,3.9324,2.0623,,,7.4751,0.58974
0.14998,129372,3.9335,2.0673,,,7.4948,0.58995
0.14998,129492,3.9348,2.0723,,,7.5144,0.59014
0.14999,129612,3.9362,2.0773,,0.0,7.5341,0.59039
0.14998,129732,3.9373,2.0823,,0.0,7.5538,0.59052
0.14998,129852,3.9388,2.0873,,,7.5735,0.59074
0.14998,129972,3.9398,2.0923,,,7.5932,0.59089
0.14998,130092,3.9414,2.0973,,,7.6129,0.59113
0.14998,130212,3.9427,2.1023,0.25741,0.0,7.6326,0.59133
0.14998,130332,3.944,2.1073,0.0,,7.6523,0.59152
0.14999,130452,3.9456,2.1123,0.0,,7.672,0.5918
0.14998,130572,3.9468,2.1173,0.0,,7.6917,0.59194
0.14998,130692,3.9485,2.1223,0.0,3.5019,7.7115,0.5922
0.14999,130812,3.9498,2.1273,0.0,0.0,7.7312,0.59243
0.14998,130932,3.9513,2.1323,0.0,0.0,7.751,0.59262
0.14998,131052,3.953,2.1373,0.29177,0.0,7.7707,0.59287
0.14999,131172,3.9542,2.1423,0.0,,7.7905,0.59309
0.14998,131292,3.9562,2.1473,0.0,,7.8103,0.59335
0.14999,131412,3.9577,2.1523,0.0,,7.83,0.59362
0.14998,131532,3.9592,2.1573,0.0,,7.8498,0.5938
0.14998,131652,3.9611,2.1623,0.0,,7.8696,0.59409
0.14998,131772,3.9626,2.1673,0.32338,,7.8894,0.59431
0.14998,131891.506,3.9645,2.1723,0.0,,7.9093,0.5946
0.14998,132012,3.966,2.1773,0.0,,7.9291,0.59482
0.14998,132132,3.9678,2.1823,0.0,,7.9489,0.59509
0.14998,132251.507,3.9698,2.1873,0.0,,7.9688,0.59539
0.14998,132372,3.9714,2.1923,0.0,,7.9886,0.59563
0.14998,132492,3.9734,2.1973,,2.7615,8.0085,0.59593
0.14998,132612,3.9751,2.2023,0.0,0.0,8.0283,0.59619
0.14997,132731.508,3.977,2.2073,0.0,0.0,8.0482,0.59643
0.14998,132851.507,3.9791,2.2123,0.0,,8.0681,0.59679
0.14999,132972,3.9808,2.2173,0.0,0.0,8.088,0.59708
0.14999,133092,3.9829,2.2223,0.37877,0.0,8.1079,0.5974
0.14998,133212,3.9847,2.2273,0.0,,8.1278,0.59763
0.14999,133332,3.9867,2.2323,0.0,,8.1477,0.59797
0.14998,133452,3.9888,2.2373,0.0,2.5232,8.1677,0.59824
0.14998,133572,3.9907,2.2423,0.0,0.0,8.1876,0.59853
0.14998,133691.506,3.9929,2.2473,0.39967,0.0,8.2076,0.59886
0.14999,133812,3.995,2.2523,0.0,,8.2276,0.59921
0.14998,133931.507,3.9969,2.2573,0.0,,8.2475,0.59946
0.14999,134052,3.9991,2.2623,0.0,2.4272,8.2675,0.59983
0.14998,134171.508,4.001,2.2673,0.0,0.0,8.2875,0.60007
0.14997,134292,4.0032,2.2723,0.41405,2.4014,8.3075,0.60036
0.14998,134412,4.0054,2.2773,0.0,0.0,8.3275,0.60073
0.14998,134532,4.0073,2.2823,0.0,0.0,8.3476,0.60101
0.14999,134652,4.0096,2.2873,0.0,,8.3676,0.6014
0.14998,134771.507,4.0115,2.2923,0.0,,8.3877,0.60164
0.14999,134892,4.0138,2.2973,,2.3888,8.4077,0.60203
0.14997,135012,4.0157,2.3023,,0.0,8.4278,0.60223
0.14999,135132,4.0178,2.3073,,0.0,8.4479,0.60263
0.14999,135252,4.0201,2.3123,,,8.468,0.60297
0.14999,135372,4.022,2.3173,,,8.4881,0.60326
0.14999,135492,4.024,2.3223,,,8.5082,0.60356
0.14998,135612,4.0262,2.3273,,,8.5283,0.60385
0.14997,135732,4.0281,2.3323,,2.429,8.5484,0.60409
0.14999,135852,4.0303,2.3373,,0.0,8.5686,0.6045
0.14998,135972,4.0323,2.3423,,0.0,8.5887,0.60476
0.14998,136092,4.0341,2.3473,,,8.6089,0.60503
0.14998,136212,4.0363,2.3523,,,8.6291,0.60536
0.14999,136332,4.038,2.3573,,2.5423,8.6493,0.60566
0.14998,136452,4.04,2.3623,,0.0,8.6695,0.60592
0.14998,136572,4.042,2.3673,,0.0,8.6897,0.60622
0.14998,136692,4.0438,2.3723,,2.6088,8.7099,0.60649
0.14998,136812,4.0458,2.3773,,0.0,8.7301,0.60679
0.14998,136932,4.0474,2.3823,,0.0,8.7503,0.60703
0.14998,137052,4.0493,2.3873,,,8.7706,0.60731
0.14999,137172,4.0513,2.3923,,,8.7908,0.60765
0.14999,137292,4.0529,2.3973,0.36617,,8.8111,0.60789
0.14998,137412,4.0548,2.4023,0.0,,8.8313,0.60814
0.14998,137532,4.0563,2.4073,0.0,,8.8516,0.60836
0.14998,137652,4.0582,2.4123,0.0,,8.8719,0.60865
0.14999,137771.506,4.0597,2.4173,0.0,,8.8922,0.60891
0.14999,137891.508,4.0612,2.4223,0.0,,8.9125,0.60914
0.14999,138012,4.063,2.4273,0.33428,,8.9328,0.60941
0.14998,138132,4.0643,2.4323,0.0,,8.9531,0.60956
0.14998,138252,4.066,2.4373,0.0,,8.9734,0.60982
0.14998,138372,4.0673,2.4423,0.0,,8.9938,0.61001
0.14998,138492,4.0688,2.4472,0.0,,9.0141,0.61024
0.14999,138612,4.0703,2.4522,0.0,,9.0344,0.6105
0.14999,138732,4.0715,2.4572,0.0,,9.0548,0.61068
0.14997,138852,4.0729,2.4622,0.28463,0.0,9.0752,0.61081
0.14999,138972,4.0739,2.4672,0.0,,9.0955,0.61104
0.14998,139092,4.075,2.4722,0.0,,9.1159,0.61117
0.14997,139211.508,4.0762,2.4772,0.0,,9.1363,0.61131
0.14999,139332,4.0771,2.4822,0.0,,9.1567,0.61152
0.14998,139452,4.0782,2.4872,0.0,,9.177,0.61165
0.14998,139572,4.0789,2.4922,0.0,,9.1974,0.61175
0.14999,139691.507,4.0798,2.4972,0.0,,9.2178,0.61193
0.14998,139812,4.0806,2.5022,0.0,,9.2382,0.61201
0.14998,139932,4.0811,2.5072,0.0,,9.2586,0.61208
0.14998,140052,4.0818,2.5122,0.0,,9.279,0.61219
0.14998,140172,4.0822,2.5172,0.0,,9.2994,0.61225
0.14999,140292,4.0829,2.5222,,,9.3198,0.61239
0.14997,140412,4.0834,2.5272,,7.5351,9.3403,0.61239
0.14999,140532,4.0837,2.5322,,0.0,9.3607,0.61251
0.14998,140651.506,4.0844,2.5372,,0.0,9.3811,0.61258
0.14998,140712,4.0846,2.5397,0.0,,9.3913,0.61261