File: Data/monotonic_segments/Cycle 520_charge.csv
Current(A),Test_Time(s),Voltage(V),Charge_Capacity(Ah),dV/dQ(V/Ah),dQ/dV(Ah/V),Charge_Energy(Wh),Power(W)
0.14999,977.665,4.2037,0.0292,-5.0442,-0.13021,0.12334,0.63051
0.14999,77234.422,3.0868,0.02999,4.8927,0.2104,0.08991,0.46299
0.14998,77354.422,3.1089,0.03499,4.3423,0.23189,0.1054,0.46627
0.14998,77474.422,3.1294,0.03999,4.0237,0.25024,0.12099,0.46935
0.14998,77594.423,3.1484,0.04498,3.7563,0.26998,0.13668,0.4722
0.14998,77714.422,3.166,0.04998,3.5943,0.28701,0.15246,0.47484
0.14998,77834.423,3.1827,0.05498,3.3436,0.30273,0.16832,0.47734
0.14998,77954.423,3.1981,0.05998,3.099,0.32618,0.18427,0.47965
0.14999,78074.423,3.213,0.06498,2.9824,0.34538,0.20029,0.48192
0.14998,78194.422,3.2269,0.06997,,0.36392,0.21638,0.48397
0.14998,78314.423,3.2398,0.07497,2.6095,0.3835,0.23255,0.48591
0.14999,78434.422,3.2523,0.07997,2.5152,0.40062,0.24877,0.48781
0.14998,78554.422,3.264,0.08497,,0.42737,0.26505,0.48953
0.14998,78674.423,3.2755,0.08997,,0.44248,0.2814,0.49126
0.14998,78794.422,3.2861,0.09496,,0.45847,0.29779,0.49285
0.14997,78914.422,3.2966,0.09996,,0.47925,0.31425,0.49439
0.14997,79034.423,3.3067,0.10496,,0.4999,0.33075,0.49591
0.14998,79154.423,3.3161,0.10996,,0.51704,0.3473,0.49735
0.14999,79274.422,3.3255,0.11496,,0.54306,0.36389,0.49879
0.14997,79394.422,3.3342,0.11995,,0.56705,0.38054,0.50003
0.14998,79514.422,3.3427,0.12495,,,0.39722,0.50134
0.14998,79634.422,3.3507,0.12995,1.647,0.61914,0.41395,0.50254
0.14998,79754.422,3.3582,0.13495,1.5316,0.66846,0.43072,0.50366
0.14998,79874.423,3.3652,0.13995,0.0,0.71415,0.44752,0.50471
0.14998,79994.423,3.3712,0.14494,,,0.46435,0.50561
0.14999,80114.422,3.3766,0.14994,,,0.48122,0.50646
0.14998,80234.423,3.3807,0.15494,,,0.4981,0.50704
0.14998,80354.422,3.3845,0.15994,,1.2362,0.51501,0.50761
0.14999,80474.422,3.3878,0.16494,0.73277,0.0,0.53194,0.50814
0.14999,80594.423,3.3904,0.16993,0.0,,0.54887,0.50853
0.14999,80714.423,3.3931,0.17493,0.0,,0.56583,0.50893
0.14998,80834.423,3.3953,0.17993,,,0.58279,0.50923
0.14998,80954.423,3.3975,0.18493,,,0.59977,0.50956
0.14998,81074.423,3.3996,0.18993,,,0.61675,0.50987
0.14998,81194.423,3.4014,0.19492,,,0.63375,0.51014
0.14998,81314.422,3.4033,0.19992,,2.5912,0.65075,0.51043
0.14999,81434.423,3.405,0.20492,,0.0,0.66777,0.51072
0.14998,81554.423,3.4069,0.20992,,0.0,0.68479,0.51097
0.14998,81674.422,3.4083,0.21492,0.3678,2.8782,0.70182,0.51118
0.14998,81794.423,3.41,0.21991,0.0,0.0,0.71886,0.51143
0.14998,81914.422,3.4118,0.22491,0.0,0.0,0.7359,0.5117
0.14999,82034.422,3.4131,0.22991,0.0,3.1496,0.75296,0.51193
0.14998,82154.422,3.4148,0.23491,0.0,0.0,0.77002,0.51215
0.14999,82274.423,3.4163,0.2399,0.0,0.0,0.78709,0.51241
0.14998,82394.423,3.4176,0.2449,0.0,0.0,0.80416,0.51257
0.14999,82514.422,3.4192,0.2499,,,0.82125,0.51285
0.14999,82634.423,3.4204,0.2549,,,0.83834,0.51303
0.14999,82754.422,3.4218,0.25989,,,0.85544,0.51324
0.14998,82874.422,3.4233,0.26489,,3.5647,0.87254,0.51343
0.14999,82994.423,3.4246,0.26989,,0.0,0.88965,0.51366
0.14998,83114.422,3.426,0.27489,,0.0,0.90677,0.51383
0.14999,83234.422,3.4272,0.27988,,0.0,0.92389,0.51405
0.14998,83354.423,3.4285,0.28488,,3.7545,0.94103,0.51421
0.14998,83474.422,3.43,0.28988,,0.0,0.95816,0.51443
0.14998,83594.422,3.4313,0.29488,,0.0,0.97531,0.51463
0.14998,83714.422,3.4324,0.29987,,0.0,0.99246,0.51479
0.14998,83834.422,3.4339,0.30487,,,1.0096,0.51502
0.14999,83954.422,3.4349,0.30987,,,1.0268,0.5152
0.14999,84074.423,3.4363,0.31487,,0.0,1.044,0.51541
0.14999,84194.422,3.4377,0.31987,,0.0,1.0611,0.51562
0.14999,84314.423,3.4388,0.32486,,,1.0783,0.51579
0.14998,84434.423,3.4403,0.32986,,,1.0955,0.51598
0.14997,84554.422,3.4414,0.33486,,,1.1127,0.51611
0.14998,84674.422,3.443,0.33986,,,1.1299,0.51638
0.14998,84794.422,3.4442,0.34485,,,1.1471,0.51656
0.14998,84914.422,3.4454,0.34985,,,1.1643,0.51674
0.14998,85034.422,3.447,0.35485,,,1.1815,0.51698
0.15,85154.422,3.4482,0.35985,0.26613,3.6689,1.1988,0.51723
0.14998,85274.422,3.4496,0.36484,0.0,0.0,1.216,0.51737
0.14999,85394.422,3.4512,0.36984,0.0,0.0,1.2333,0.51765
0.14998,85514.422,3.4524,0.37484,0.0,0.0,1.2505,0.51779
0.14998,85634.422,3.4541,0.37984,0.0,,1.2678,0.51805
0.14998,85754.422,3.4554,0.38483,0.0,,1.285,0.51824
0.14997,85874.422,3.457,0.38983,0.0,,1.3023,0.51845
0.14998,85994.422,3.4586,0.39483,,3.3284,1.3196,0.51872
0.14997,86114.422,3.46,0.39983,,0.0,1.3369,0.5189
0.14998,86234.422,3.4618,0.40483,,0.0,1.3542,0.5192
0.14998,86354.422,3.4633,0.40982,,3.1412,1.3715,0.51943
0.14998,86474.423,3.4649,0.41482,,0.0,1.3888,0.51967
0.14999,86594.422,3.4668,0.41982,,0.0,1.4061,0.51999
0.14998,86714.422,3.4683,0.42482,0.32727,2.9385,1.4235,0.52018
0.14998,86834.423,3.4702,0.42982,0.0,0.0,1.4408,0.52046
0.14998,86954.422,3.4721,0.43481,0.0,0.0,1.4581,0.52075
0.14998,87074.422,3.4737,0.43981,0.0,2.7784,1.4755,0.52099
0.14997,87194.422,3.4758,0.44481,0.0,0.0,1.4929,0.52127
0.14998,87314.422,3.4775,0.44981,0.0,0.0,1.5102,0.52156
0.14998,87434.422,3.4795,0.45481,,,1.5276,0.52186
0.14998,87554.422,3.4816,0.4598,,,1.545,0.52217
0.14998,87674.423,3.4834,0.4648,,2.5559,1.5624,0.52244
0.14998,87794.422,3.4855,0.4698,,0.0,1.5798,0.52276
0.14999,87914.422,3.4874,0.4748,,0.0,1.5973,0.52308
0.14999,88034.423,3.4895,0.4798,,,1.6147,0.52339
0.14998,88154.423,3.4915,0.48479,,,1.6321,0.52366
0.14998,88274.422,3.4935,0.48979,,2.4614,1.6496,0.52396
0.14998,88394.422,3.4957,0.49479,,0.0,1.6671,0.52429
0.14998,88514.423,3.4975,0.49979,,0.0,1.6845,0.52456
0.14998,88634.422,3.4996,0.50479,,,1.702,0.52487
0.14998,88754.423,3.5018,0.50978,,,1.7195,0.5252
0.14998,88874.422,3.5037,0.51478,,2.4452,1.737,0.52548
0.14998,88994.422,3.5058,0.51978,,0.0,1.7545,0.5258
0.14998,89114.422,3.5077,0.52478,0.40908,0.0,1.7721,0.52608
0.14998,89234.423,3.5099,0.52978,0.0,,1.7896,0.52641
0.14998,89354.422,3.5118,0.53477,0.0,,1.8072,0.5267
0.14998,89474.422,3.5138,0.53977,0.0,2.4766,1.8247,0.527
0.14998,89594.422,3.516,0.54477,0.0,0.0,1.8423,0.52733
0.14998,89714.423,3.5178,0.54977,0.40262,0.0,1.8599,0.5276
0.14998,89834.423,3.52,0.55477,0.0,,1.8774,0.52793
0.14998,89954.422,3.5218,0.55976,0.0,,1.895,0.5282
0.14998,90074.423,3.524,0.56476,0.0,2.4959,1.9127,0.52853
0.14998,90194.422,3.5258,0.56976,0.0,0.0,1.9303,0.5288
0.14998,90314.422,3.5279,0.57476,0.40159,0.0,1.9479,0.52911
0.14998,90434.422,3.53,0.57976,0.0,,1.9655,0.52943
0.14998,90554.422,3.5318,0.58475,0.0,,1.9832,0.5297
0.14998,90674.423,3.534,0.58975,0.0,2.5196,2.0008,0.53003
0.14998,90794.423,3.5359,0.59475,0.0,0.0,2.0185,0.53031
0.14999,90914.422,3.5378,0.59975,0.39696,0.0,2.0362,0.53063
0.14999,91034.423,3.5398,0.60475,0.0,,2.0539,0.53093
0.14998,91154.423,3.5416,0.60974,0.0,,2.0716,0.53117
0.14999,91274.422,3.5437,0.61474,0.0,2.6022,2.0893,0.53152
0.14997,91394.422,3.5454,0.61974,0.0,0.0,2.107,0.5317
0.14998,91514.423,3.5473,0.62474,0.0,0.0,2.1247,0.53202
0.14998,91634.422,3.5492,0.62974,,,2.1424,0.53231
0.14999,91754.422,3.5509,0.63473,,,2.1602,0.5326
0.14998,91874.423,3.5528,0.63973,,,2.1779,0.53285
0.14997,91994.423,3.5544,0.64473,,,2.1957,0.53305
0.14998,92114.422,3.5563,0.64973,,,2.2135,0.53337
0.14998,92234.423,3.5579,0.65473,0.35609,,2.2313,0.53361
0.14998,92354.422,3.5597,0.65972,0.0,,2.249,0.53388
0.14998,92474.423,3.5615,0.66472,0.0,,2.2668,0.53415
0.14998,92594.422,3.5631,0.66972,0.0,,2.2846,0.53439
0.14996,92714.422,3.565,0.67472,0.0,,2.3025,0.53461
0.14998,92834.422,3.5665,0.67972,0.0,,2.3203,0.5349
0.14997,92954.422,3.5684,0.68471,0.34355,2.9437,2.3381,0.53515
0.14998,93074.423,3.57,0.68971,0.0,0.0,2.3559,0.53543
0.14997,93194.423,3.5715,0.69471,0.0,0.0,2.3738,0.53562
0.14998,93314.422,3.5733,0.69971,0.0,0.0,2.3916,0.53592
0.14998,93434.422,3.5748,0.70471,0.0,,2.4095,0.53615
0.14999,93554.422,3.5765,0.7097,0.0,,2.4274,0.53644
0.14998,93674.422,3.5781,0.7147,0.32461,,2.4453,0.53664
0.14998,93794.423,3.5794,0.7197,0.0,,2.4631,0.53684
0.14998,93914.422,3.5811,0.7247,0.0,,2.481,0.53709
0.14997,94034.423,3.5825,0.7297,0.0,,2.4989,0.53727
0.14998,94154.422,3.584,0.73469,0.0,,2.5169,0.53753
0.14999,94274.422,3.5856,0.73969,0.0,,2.5348,0.5378
0.14997,94394.422,3.5869,0.74469,0.0,,2.5527,0.53793
0.14998,94514.422,3.5884,0.74969,0.29828,3.4613,2.5706,0.53819
0.14998,94634.422,3.5897,0.75469,0.0,0.0,2.5886,0.53838
0.14998,94754.422,3.5911,0.75968,0.0,0.0,2.6065,0.53859
0.14998,94874.422,3.5925,0.76468,0.0,0.0,2.6245,0.5388
0.14998,94994.422,3.5938,0.76968,0.0,3.639,2.6424,0.539
0.14997,95114.422,3.5952,0.77468,0.0,0.0,2.6604,0.53917
0.14998,95234.422,3.5964,0.77968,0.0,0.0,2.6784,0.53939
0.14998,95354.422,3.5977,0.78467,0.26945,0.0,2.6963,0.53958
0.14999,95474.422,3.5991,0.78967,0.0,,2.7143,0.53983
0.14998,95594.423,3.6002,0.79467,0.0,,2.7323,0.53996
0.14998,95714.422,3.6015,0.79967,0.0,,2.7503,0.54015
0.14998,95834.422,3.6029,0.80467,0.0,,2.7683,0.54036
0.14998,95954.422,3.604,0.80966,0.0,,2.7863,0.54053
0.14998,96074.423,3.6054,0.81466,,,2.8043,0.54074
0.14999,96194.422,3.6064,0.81966,,,2.8224,0.54092
0.14998,96314.423,3.6077,0.82466,,,2.8404,0.54108
0.14998,96434.422,3.6089,0.82966,,,2.8584,0.54126
0.14998,96554.423,3.61,0.83465,,,2.8765,0.54143
0.14999,96674.423,3.6114,0.83965,,,2.8945,0.54167
0.14999,96794.422,3.6124,0.84465,,,2.9126,0.54182
0.14998,96914.422,3.6137,0.84965,,4.2293,2.9306,0.54198
0.14998,97034.422,3.6147,0.85465,,0.0,2.9487,0.54213
0.14998,97154.422,3.6159,0.85964,,0.0,2.9667,0.54231
0.14998,97274.422,3.6171,0.86464,,0.0,2.9848,0.54249
0.14998,97394.422,3.6181,0.86964,0.23362,0.0,3.0029,0.54264
0.14998,97514.422,3.6194,0.87464,0.0,,3.021,0.54284
0.14998,97634.422,3.6204,0.87964,0.0,,3.0391,0.54299
0.14999,97754.423,3.6216,0.88463,0.0,,3.0572,0.5432
0.14998,97874.422,3.6228,0.88963,0.0,,3.0753,0.54335
0.14998,97994.422,3.6238,0.89463,0.0,4.458,3.0934,0.5435
0.14999,98114.422,3.625,0.89963,0.0,0.0,3.1115,0.54371
0.14998,98234.422,3.6259,0.90463,0.0,0.0,3.1296,0.54381
0.14998,98354.422,3.6271,0.90962,0.0,0.0,3.1478,0.54399
0.14998,98474.423,3.6283,0.91462,0.22116,0.0,3.1659,0.54417
0.14997,98594.422,3.6291,0.91962,0.0,,3.184,0.54426
0.14999,98714.422,3.6304,0.92462,0.0,,3.2022,0.54452
0.14998,98834.423,3.6312,0.92962,0.0,,3.2203,0.54461
0.14998,98954.423,3.6325,0.93461,0.0,,3.2385,0.5448
0.14998,99074.422,3.6335,0.93961,0.0,4.6892,3.2566,0.54495
0.14999,99194.423,3.6345,0.94461,0.0,0.0,3.2748,0.54514
0.14998,99314.422,3.6357,0.94961,0.0,0.0,3.2929,0.54528
0.14998,99434.422,3.6366,0.95461,0.0,0.0,3.3111,0.54542
0.14999,99554.422,3.6378,0.9596,0.0,0.0,3.3293,0.54563
0.14999,99674.422,3.6387,0.9646,,4.7119,3.3475,0.54577
0.14998,99794.422,3.6397,0.9696,,0.0,3.3657,0.54588
0.14999,99914.422,3.641,0.9746,,0.0,3.3839,0.54611
0.14998,100034.423,3.6419,0.9796,,0.0,3.4021,0.54621
0.14998,100154.422,3.6431,0.98459,,0.0,3.4203,0.54639
0.14998,100274.422,3.644,0.98959,,,3.4385,0.54653
0.14998,100394.422,3.6451,0.99459,,,3.4567,0.54669
0.14998,100514.423,3.6463,0.99959,,,3.4749,0.54687
0.14998,100634.422,3.6471,1.0046,,,3.4931,0.54699
0.14998,100754.423,3.6484,1.0096,,4.6942,3.5114,0.54719
0.14998,100874.423,3.6493,1.0146,,0.0,3.5296,0.54732
0.14998,100994.422,3.6504,1.0196,,0.0,3.5478,0.54749
0.14997,101114.422,3.6516,1.0246,,0.0,3.5661,0.54763
0.14998,101234.422,3.6525,1.0296,0.0,0.0,3.5843,0.5478
0.14998,101354.422,3.6537,1.0346,0.0,4.6665,3.6026,0.54798
0.14997,101474.422,3.6548,1.0396,0.0,0.0,3.6209,0.54811
0.14998,101594.423,3.6558,1.0446,0.0,0.0,3.6391,0.5483
0.14998,101714.423,3.657,1.0496,0.0,0.0,3.6574,0.54848
0.14999,101834.422,3.658,1.0546,0.21686,0.0,3.6757,0.54866
0.14998,101954.422,3.6593,1.0596,0.0,,3.694,0.54882
0.14998,102074.423,3.6602,1.0646,0.0,,3.7123,0.54896
0.14999,102194.422,3.6613,1.0696,0.0,,3.7306,0.54916
0.14998,102314.422,3.6626,1.0746,0.0,,3.7489,0.54932
0.14999,102434.422,3.6635,1.0796,0.0,4.4763,3.7672,0.54949
0.14998,102554.422,3.6648,1.0846,0.0,0.0,3.7855,0.54965
0.14999,102674.422,3.666,1.0895,0.0,0.0,3.8038,0.54986
0.14999,102794.422,3.667,1.0945,0.0,0.0,3.8221,0.55001
0.14998,102914.423,3.6683,1.0995,0.22497,0.0,3.8405,0.55017
0.14997,103034.422,3.6693,1.1045,0.0,,3.8588,0.55028
0.14998,103154.422,3.6706,1.1095,0.0,,3.8771,0.55052
0.14998,103274.422,3.6718,1.1145,0.0,,3.8955,0.5507
0.14998,103394.423,3.6728,1.1195,0.0,,3.9138,0.55085
0.14998,103514.422,3.6742,1.1245,0.0,,3.9322,0.55106
0.14998,103634.422,3.6752,1.1295,0.0,,3.9506,0.55121
0.14998,103754.422,3.6766,1.1345,0.0,,3.9689,0.55142
0.14998,103874.422,3.6778,1.1395,0.0,,3.9873,0.5516
0.14999,103994.422,3.6789,1.1445,,,4.0057,0.5518
0.14998,104114.422,3.6803,1.1495,,,4.0241,0.55197
0.14998,104234.422,3.6814,1.1545,,,4.0425,0.55214
0.14998,104354.422,3.6828,1.1595,,,4.0609,0.55235
0.14997,104474.423,3.684,1.1645,,,4.0793,0.55249
0.14999,104594.422,3.6852,1.1695,,,4.0977,0.55274
0.14999,104714.422,3.6867,1.1745,,,4.1162,0.55297
0.14998,104834.422,3.6878,1.1795,0.25317,,4.1346,0.5531
0.14998,104954.422,3.6893,1.1845,0.0,,4.153,0.55332
0.14998,105074.422,3.6905,1.1895,0.0,,4.1715,0.5535
0.14998,105194.422,3.6918,1.1945,0.0,,4.1899,0.5537
0.14998,105314.422,3.6933,1.1995,0.0,,4.2084,0.55392
0.14998,105434.422,3.6946,1.2045,0.0,,4.2268,0.55412
0.14998,105554.423,3.696,1.2095,0.0,,4.2453,0.55433
0.14998,105674.422,3.6974,1.2145,0.0,,4.2638,0.55454
0.14998,105794.422,3.6987,1.2195,,3.6156,4.2823,0.55473
0.14999,105914.422,3.7003,1.2245,,0.0,4.3007,0.55501
0.14999,106034.422,3.7016,1.2295,,0.0,4.3192,0.5552
0.14998,106154.422,3.703,1.2345,,0.0,4.3377,0.55538
0.14998,106274.422,3.7046,1.2395,,,4.3563,0.55562
0.14999,106394.422,3.706,1.2445,,,4.3748,0.55586
0.14998,106514.422,3.7076,1.2495,,,4.3933,0.55607
0.14998,106634.422,3.7089,1.2545,,3.374,4.4118,0.55626
0.14998,106754.422,3.7105,1.2595,,0.0,4.4304,0.5565
0.14998,106874.422,3.7121,1.2645,,0.0,4.4489,0.55674
0.14997,106994.422,3.7135,1.2695,,3.3033,4.4675,0.55691
0.14998,107114.422,3.7151,1.2745,,0.0,4.4861,0.55719
0.14998,107234.423,3.7166,1.2795,,0.0,4.5046,0.55742
0.14998,107354.423,3.7183,1.2845,0.30564,0.0,4.5232,0.55767
0.14997,107474.422,3.7198,1.2895,0.0,,4.5418,0.55786
0.14998,107594.422,3.7212,1.2945,0.0,,4.5604,0.55811
0.14998,107714.422,3.7231,1.2995,0.0,,4.579,0.55839
0.14999,107834.422,3.7246,1.3045,0.0,,4.5976,0.55865
0.14998,107954.422,3.7262,1.3095,0.0,,4.6162,0.55886
0.14996,108074.422,3.728,1.3145,0.32107,,4.6349,0.55905
0.14998,108194.422,3.7294,1.3195,0.0,,4.6535,0.55934
0.14999,108314.423,3.7312,1.3245,0.0,,4.6721,0.55964
0.14998,108434.422,3.7327,1.3295,0.0,,4.6908,0.55983
0.14998,108554.423,3.7344,1.3345,0.0,,4.7094,0.56009
0.14998,108674.422,3.7362,1.3395,,,4.7281,0.56036
0.14998,108794.422,3.7377,1.3445,0.33193,,4.7468,0.56058
0.14998,108914.422,3.7396,1.3495,0.0,,4.7655,0.56087
0.14998,109034.422,3.7411,1.3545,,,4.7842,0.56109
0.14998,109154.423,3.7427,1.3594,,,4.8029,0.56133
0.14998,109274.422,3.7446,1.3644,,,4.8216,0.56162
0.14998,109394.422,3.7462,1.3694,,,4.8403,0.56186
0.14999,109514.423,3.7481,1.3744,0.34011,,4.859,0.56218
0.14998,109634.423,3.7496,1.3794,0.0,,4.8778,0.56237
0.14999,109754.422,3.7515,1.3844,0.0,,4.8965,0.56269
0.14998,109874.423,3.7531,1.3894,0.0,,4.9153,0.56289
0.14997,109994.422,3.7548,1.3944,0.0,,4.934,0.56311
0.14999,110114.422,3.7566,1.3994,0.0,,4.9528,0.56345
0.14997,110234.422,3.7582,1.4044,0.34319,,4.9716,0.56362
0.14998,110354.422,3.7601,1.4094,0.0,,4.9904,0.56394
0.14998,110474.423,3.7617,1.4144,0.0,,5.0092,0.56418
0.14998,110594.422,3.7633,1.4194,0.0,2.9172,5.028,0.56442
0.14998,110714.423,3.7652,1.4244,0.0,0.0,5.0468,0.5647
0.14997,110834.422,3.7668,1.4294,0.0,0.0,5.0656,0.56491
0.14998,110954.422,3.7687,1.4344,0.34391,2.9242,5.0844,0.56523
0.14998,111074.423,3.7702,1.4394,0.0,0.0,5.1033,0.56545
0.14998,111194.422,3.7719,1.4444,0.0,0.0,5.1221,0.56571
0.14998,111314.422,3.7737,1.4494,0.0,2.9235,5.141,0.56598
0.14998,111434.423,3.7754,1.4544,0.0,0.0,5.1599,0.56623
0.14998,111554.422,3.777,1.4594,0.0,0.0,5.1787,0.56647
0.14998,111674.422,3.7789,1.4644,,2.9618,5.1976,0.56676
0.14999,111794.422,3.7804,1.4694,,0.0,5.2165,0.56702
0.14998,111914.422,3.782,1.4744,,0.0,5.2354,0.56722
0.14999,112034.422,3.7839,1.4794,,2.9597,5.2543,0.56755
0.14998,112154.422,3.7854,1.4844,,0.0,5.2732,0.56773
0.14999,112274.422,3.7871,1.4894,,0.0,5.2921,0.56803
0.14997,112394.422,3.789,1.4944,,2.9739,5.3111,0.56824
0.14998,112514.422,3.7904,1.4994,,0.0,5.33,0.56848
0.14998,112634.422,3.7922,1.5044,,0.0,5.349,0.56875
0.14999,112754.422,3.7938,1.5094,,3.0239,5.3679,0.56903
0.14997,112874.422,3.7954,1.5144,,0.0,5.3869,0.5692
0.14998,112994.422,3.7972,1.5194,,0.0,5.4059,0.5695
0.14998,113114.423,3.7987,1.5244,,2.9933,5.4248,0.56973
0.14997,113234.422,3.8005,1.5294,,0.0,5.4438,0.56996
0.14999,113354.422,3.8022,1.5344,,0.0,5.4628,0.57029
0.14997,113474.422,3.8037,1.5394,,3.0208,5.4818,0.57044
0.14997,113594.423,3.8055,1.5444,,0.0,5.5009,0.57071
0.14998,113714.422,3.807,1.5494,,0.0,5.5199,0.57097
0.14998,113834.422,3.8088,1.5544,,3.0192,5.5389,0.57124
0.14998,113954.422,3.8104,1.5594,,0.0,5.558,0.57148
0.14998,114074.422,3.812,1.5644,,0.0,5.577,0.57172
0.14998,114194.422,3.8138,1.5694,,3.0001,5.5961,0.57199
0.14999,114314.422,3.8153,1.5744,,0.0,5.6151,0.57226
0.14998,114434.423,3.817,1.5794,,0.0,5.6342,0.57247
0.14998,114554.423,3.8189,1.5844,,2.9818,5.6533,0.57276
0.14998,114674.422,3.8204,1.5894,,0.0,5.6724,0.57298
0.14998,114794.422,3.8222,1.5944,,0.0,5.6915,0.57325
0.14998,114914.422,3.8237,1.5994,,2.9828,5.7106,0.57348
0.14999,115034.422,3.8254,1.6043,,0.0,5.7297,0.57377
0.14999,115154.423,3.8273,1.6093,,0.0,5.7488,0.57406
0.14998,115274.423,3.8288,1.6143,,2.9537,5.7679,0.57424
0.14998,115394.423,3.8307,1.6193,,0.0,5.7871,0.57453
0.14999,115514.422,3.8322,1.6243,,0.0,5.8062,0.57479
0.14998,115634.422,3.8339,1.6293,,2.9279,5.8254,0.57501
0.14998,115754.423,3.8358,1.6343,,0.0,5.8446,0.57529
0.14999,115874.423,3.8373,1.6393,,0.0,5.8637,0.57556
0.14999,115994.422,3.8392,1.6443,,2.9194,5.8829,0.57584
0.14999,116114.422,3.8408,1.6493,,0.0,5.9021,0.57608
0.14999,116234.422,3.8426,1.6543,,0.0,5.9213,0.57635
0.14998,116354.423,3.8444,1.6593,,,5.9405,0.57658
0.14998,116474.422,3.846,1.6643,,,5.9597,0.57682
0.14998,116594.422,3.8479,1.6693,,,5.979,0.57711
0.14999,116714.422,3.8494,1.6743,,,5.9982,0.57737
0.14998,116834.422,3.8511,1.6793,,,6.0174,0.57759
0.14998,116954.422,3.853,1.6843,,,6.0367,0.57787
0.14998,117074.422,3.8546,1.6893,,,6.056,0.57811
0.14998,117194.422,3.8566,1.6943,,,6.0752,0.57841
0.14999,117314.423,3.8581,1.6993,0.3464,,6.0945,0.57868
0.14998,117434.423,3.8599,1.7043,0.0,,6.1138,0.57891
0.14998,117554.422,3.8618,1.7093,0.0,,6.1331,0.57919
0.14998,117674.422,3.8633,1.7143,0.0,,6.1524,0.57942
0.14998,117794.422,3.8652,1.7193,0.0,,6.1717,0.5797
0.14998,117914.423,3.8668,1.7243,0.0,,6.191,0.57994
0.14998,118034.422,3.8687,1.7293,0.3481,2.8794,6.2104,0.58023
0.14998,118154.423,3.8704,1.7343,0.0,0.0,6.2297,0.58048
0.14998,118274.422,3.872,1.7393,0.0,0.0,6.2491,0.58072
0.14998,118394.423,3.8739,1.7443,0.0,2.8845,6.2684,0.58101
0.14998,118514.422,3.8755,1.7493,0.0,0.0,6.2878,0.58125
0.14998,118634.422,3.8774,1.7543,0.0,0.0,6.3071,0.58153
0.14997,118754.422,3.879,1.7593,,2.8858,6.3265,0.58173
0.14998,118874.422,3.8806,1.7643,,0.0,6.3459,0.58201
0.14998,118994.422,3.8825,1.7693,,0.0,6.3653,0.5823
0.14999,119114.422,3.884,1.7743,,2.912,6.3847,0.58256
0.14997,119234.422,3.8859,1.7793,,0.0,6.4041,0.58277
0.14999,119354.423,3.8873,1.7843,,0.0,6.4236,0.58306
0.14997,119474.423,3.8892,1.7893,,2.9608,6.443,0.58326
0.14998,119594.422,3.8909,1.7943,,0.0,6.4624,0.58356
0.14999,119714.423,3.8924,1.7993,,0.0,6.4819,0.58382
0.14998,119834.423,3.8941,1.8043,,3.0453,6.5014,0.58404
0.14998,119954.422,3.8956,1.8093,,0.0,6.5208,0.58426
0.14997,120074.422,3.8972,1.8143,,0.0,6.5403,0.58446
0.14998,120194.423,3.8988,1.8193,,3.2173,6.5598,0.58474
0.14998,120314.423,3.9001,1.8243,,0.0,6.5793,0.58494
0.14998,120434.422,3.9018,1.8293,,0.0,6.5988,0.58519
0.14998,120554.422,3.9031,1.8343,,0.0,6.6183,0.58539
0.14998,120674.422,3.9046,1.8393,,,6.6378,0.58561
0.14999,120794.423,3.9059,1.8443,,,6.6573,0.58585
0.14998,120914.422,3.9072,1.8492,,,6.6768,0.586
0.14998,121034.423,3.9087,1.8542,,3.687,6.6963,0.58623
0.14998,121154.422,3.9097,1.8592,,0.0,6.7159,0.58638
0.14998,121274.422,3.9111,1.8642,,0.0,6.7354,0.58659
0.14997,121394.423,3.9122,1.8692,,0.0,6.755,0.58671
0.14998,121514.422,3.9134,1.8742,,4.0375,6.7745,0.58693
0.14997,121634.422,3.9148,1.8792,,0.0,6.7941,0.5871
0.14997,121754.422,3.9157,1.8842,0.0,0.0,6.8137,0.58724
0.14998,121874.423,3.9171,1.8892,0.0,0.0,6.8332,0.58749
0.14999,121994.422,3.9181,1.8942,0.24184,,6.8528,0.58768
0.14998,122114.423,3.9192,1.8992,0.0,,6.8724,0.5878
0.14998,122234.422,3.9205,1.9042,0.0,,6.892,0.588
0.14998,122354.423,3.9214,1.9092,0.0,,6.9116,0.58813
0.14998,122474.423,3.9227,1.9142,0.0,,6.9312,0.58833
0.14998,122594.422,3.9239,1.9192,0.0,4.4414,6.9508,0.58851
0.14998,122714.423,3.9249,1.9242,0.0,0.0,6.9704,0.58866
0.14998,122834.422,3.9262,1.9292,0.0,0.0,6.99,0.58885
0.14998,122954.422,3.9271,1.9342,0.0,0.0,7.0097,0.58899
0.14998,123074.422,3.9284,1.9392,0.2273,0.0,7.0293,0.58918
0.14998,123194.423,3.9297,1.9442,0.0,,7.0489,0.58938
0.14997,123314.422,3.9306,1.9492,0.0,,7.0686,0.58947
0.14999,123434.422,3.932,1.9542,0.0,,7.0882,0.58976
0.14998,123554.422,3.933,1.9592,0.0,,7.1079,0.58987
0.14999,123674.422,3.9344,1.9642,0.0,,7.1275,0.59012
0.14998,123794.422,3.9356,1.9692,0.0,,7.1472,0.59026
0.14998,123914.422,3.9368,1.9742,0.0,,7.1669,0.59044
0.14998,124034.422,3.9383,1.9792,0.24503,,7.1866,0.59067
0.14998,124154.422,3.9395,1.9842,0.0,,7.2062,0.59085
0.14998,124274.422,3.941,1.9892,0.0,,7.2259,0.59107
0.14998,124394.422,3.9422,1.9942,0.0,,7.2456,0.59125
0.14997,124514.423,3.9436,1.9992,0.0,3.6856,7.2653,0.59142
0.14999,124634.423,3.9451,2.0042,0.0,0.0,7.2851,0.59173
0.14998,124754.422,3.9463,2.0092,0.0,0.0,7.3048,0.59187
0.14999,124874.422,3.948,2.0142,0.27543,0.0,7.3245,0.59216
0.14996,124994.423,3.9493,2.0192,0.0,,7.3442,0.59224
0.14999,125114.422,3.9508,2.0242,0.0,,7.364,0.59258
0.14998,125234.422,3.9525,2.0292,0.0,,7.3837,0.5928
0.14998,125354.422,3.9539,2.0342,,3.3049,7.4035,0.59301
0.14998,125474.422,3.9556,2.0392,,0.0,7.4233,0.59326
0.14998,125594.422,3.957,2.0442,,0.0,7.443,0.59347
0.14998,125714.423,3.9587,2.0492,,3.1288,7.4628,0.59373
0.14998,125834.422,3.9604,2.0542,,0.0,7.4826,0.59398
0.14998,125954.422,3.962,2.0592,,0.0,7.5024,0.59422
0.14999,126074.422,3.9639,2.0642,,2.9893,7.5222,0.59455
0.14998,126194.422,3.9654,2.0692,,0.0,7.542,0.59473
0.14997,126314.422,3.9674,2.0742,,0.0,7.5618,0.59499
0.14998,126434.423,3.9689,2.0792,,2.8541,7.5817,0.59526
0.14998,126554.422,3.9707,2.0842,,0.0,7.6015,0.59553
0.14998,126674.422,3.9728,2.0892,,0.0,7.6214,0.59584
0.14998,126794.422,3.9745,2.0941,,,7.6412,0.5961
0.14998,126914.422,3.9763,2.0991,,,7.6611,0.59637
0.14998,127034.422,3.9784,2.1041,0.36906,,7.681,0.59668
0.14998,127154.422,3.9802,2.1091,0.0,,7.7009,0.59695
0.14998,127274.422,3.9823,2.1141,0.0,,7.7208,0.59727
0.14998,127394.422,3.9841,2.1191,0.0,2.5658,7.7407,0.59754
0.14998,127514.422,3.9863,2.1241,0.0,0.0,7.7606,0.59787
0.14998,127634.422,3.9882,2.1291,0.39474,0.0,7.7805,0.59815
0.14998,127754.422,3.9902,2.1341,0.0,,7.8005,0.59845
0.14999,127874.422,3.9925,2.1391,0.0,,7.8204,0.59884
0.14998,127994.422,3.9943,2.1441,0.0,2.4282,7.8404,0.59907
0.14998,128114.422,3.9966,2.1491,0.0,0.0,7.8603,0.59941
0.14998,128234.423,3.9985,2.1541,0.41494,2.3632,7.8803,0.5997
0.14997,128354.422,4.0007,2.1591,0.0,0.0,7.9003,0.59998
0.14997,128474.422,4.003,2.1641,0.0,0.0,7.9203,0.60033
0.14998,128594.422,4.0049,2.1691,0.0,,7.9403,0.60065
0.14998,128714.423,4.0073,2.1741,0.0,,7.9603,0.60101
0.14999,128834.422,4.0092,2.1791,,2.3229,7.9804,0.60134
0.14998,128954.422,4.0116,2.1841,,0.0,8.0004,0.60166
0.14998,129074.422,4.0137,2.1891,,2.314,8.0205,0.60197
0.14998,129194.423,4.0158,2.1941,,0.0,8.0405,0.60229
0.14999,129314.422,4.0181,2.1991,0.43234,0.0,8.0606,0.60267
0.14998,129434.423,4.0201,2.2041,0.0,,8.0807,0.60293
0.14998,129554.422,4.0222,2.2091,0.0,,8.1008,0.60325
0.14999,129674.422,4.0246,2.2141,0.0,2.3166,8.1209,0.60365
0.14998,129794.423,4.0265,2.2191,0.0,0.0,8.141,0.60389
0.14998,129914.422,4.0288,2.2241,0.42934,2.3488,8.1612,0.60424
0.14999,130034.423,4.0307,2.2291,0.0,0.0,8.1813,0.60456
0.14998,130154.423,4.0329,2.2341,0.0,0.0,8.2015,0.60485
0.14998,130274.423,4.035,2.2391,0.0,,8.2216,0.60517
0.14999,130394.422,4.0369,2.2441,0.0,,8.2418,0.60549
0.14998,130514.422,4.0392,2.2491,,2.4199,8.262,0.6058
0.14998,130634.422,4.041,2.2541,,0.0,8.2822,0.60607
0.14998,130754.422,4.0432,2.2591,,0.0,8.3024,0.6064
0.14997,130874.422,4.045,2.2641,,,8.3226,0.60663
0.14998,130994.422,4.047,2.2691,,,8.3428,0.60697
0.14998,131114.422,4.0489,2.2741,,2.5747,8.363,0.60725
0.14998,131234.422,4.0507,2.2791,,0.0,8.3833,0.60752
0.14998,131354.422,4.0528,2.2841,,0.0,8.4035,0.60784
0.14998,131474.422,4.0544,2.2891,,,8.4238,0.60808
0.14998,131594.423,4.0565,2.2941,,,8.4441,0.60839
0.14998,131714.423,4.0581,2.2991,0.37102,,8.4643,0.60863
0.14998,131834.423,4.0599,2.3041,0.0,,8.4846,0.6089
0.14997,131954.422,4.0618,2.3091,0.0,,8.5049,0.60915
0.14998,132074.422,4.0633,2.3141,0.0,,8.5252,0.60941
0.14998,132194.422,4.0651,2.3191,0.0,,8.5455,0.60968
0.14998,132314.423,4.0665,2.3241,0.0,,8.5659,0.60989
0.14999,132434.422,4.0683,2.3291,0.33626,,8.5862,0.6102
0.14997,132554.422,4.0696,2.3341,0.0,,8.6065,0.61032
0.14998,132674.423,4.0711,2.3391,0.0,,8.6269,0.61058
0.14998,132794.422,4.0726,2.344,0.0,,8.6472,0.61081
0.14998,132914.422,4.0738,2.349,0.0,3.4797,8.6676,0.61099
0.14998,133034.423,4.0753,2.354,0.0,0.0,8.6879,0.61121
0.14999,133154.422,4.0763,2.359,0.0,0.0,8.7083,0.6114
0.14998,133274.422,4.0775,2.364,0.0,0.0,8.7287,0.61154
0.14998,133394.423,4.0786,2.369,,0.0,8.7491,0.61171
0.14998,133514.423,4.0794,2.374,,,8.7695,0.61183
0.14998,133634.422,4.0805,2.379,,,8.7898,0.61199
0.14998,133754.423,4.0812,2.384,,,8.8102,0.6121
0.14998,133874.422,4.0818,2.389,,,8.8306,0.61219
0.14999,133994.422,4.0826,2.394,,,8.851,0.61235
0.14999,134114.422,4.0829,2.399,,,8.8714,0.61239
0.14996,134234.422,4.0837,2.404,,6.8792,8.8919,0.61239
0.14998,134294.422,4.084,2.4065,0.0,,8.9021,0.61252