File: Data/monotonic_segments/Cycle 970_charge.csv
Current(A),Test_Time(s),Voltage(V),Charge_Capacity(Ah),dV/dQ(V/Ah),dQ/dV(Ah/V),Charge_Energy(Wh),Power(W)
0.15,1350.906,4.2001,0.06462,0.0,0.0,0.27207,0.63002
0.1487,1350.915,4.2001,0.06462,0.0,0.0,0.27207,0.62455
0.14997,76246.488,3.2519,0.06497,2.7191,0.38011,0.20374,0.48769
0.14999,76306.488,3.2583,0.06747,2.6053,0.38904,0.21188,0.48871
0.14998,76366.489,3.2647,0.06997,,0.3941,0.22003,0.48964
0.14997,76426.488,3.2708,0.07247,2.5068,0.4039,0.22819,0.49052
0.14998,76486.488,3.2766,0.07497,2.4011,0.42111,0.23638,0.49142
0.14998,76546.489,3.2823,0.07747,,0.43017,0.24457,0.49228
0.14998,76606.487,3.2881,0.07996,2.3082,0.43837,0.25278,0.49315
0.14997,76666.488,3.2937,0.08246,,0.44708,0.261,0.49396
0.14997,76726.487,3.2991,0.08496,2.2127,0.45717,0.26924,0.49477
0.14998,76786.488,3.3044,0.08746,,0.46658,0.27749,0.49559
0.14998,76846.488,3.3094,0.08996,2.1255,0.47722,0.28575,0.49634
0.14998,76906.486,3.3145,0.09246,,0.48809,0.29403,0.49711
0.14998,76966.489,3.3195,0.09496,2.0262,0.49924,0.30232,0.49786
0.14998,77026.487,3.3244,0.09746,,0.51229,0.31062,0.49859
0.14998,77086.488,3.3289,0.09996,1.9421,0.51884,0.31893,0.49927
0.14999,77146.486,3.3336,0.10245,,0.53319,0.32726,0.50001
0.14997,77206.487,3.3381,0.10495,1.8492,0.55016,0.3356,0.50061
0.14998,77266.488,3.3426,0.10745,,0.56064,0.34394,0.50132
0.14997,77326.486,3.347,0.10995,1.7632,0.57706,0.3523,0.50195
0.14997,77386.486,3.3511,0.11245,,,0.36067,0.50256
0.14997,77446.486,3.3551,0.11495,0.0,0.59221,0.36905,0.50316
0.14998,77506.487,3.3592,0.11745,1.6663,0.6102,0.37744,0.50381
0.14997,77566.489,3.3632,0.11995,,0.63267,0.38584,0.50438
0.14998,77626.487,3.3668,0.12244,1.5512,0.65688,0.39424,0.50495
0.14998,77686.487,3.3704,0.12494,,,0.40266,0.50549
0.14998,77746.489,3.3738,0.12744,0.0,0.69208,0.41109,0.506
0.14997,77806.487,3.3773,0.12994,1.4078,0.73304,0.41952,0.50649
0.14998,77866.487,3.3804,0.13244,,,0.42797,0.50699
0.14998,77926.487,3.3832,0.13494,0.0,0.8037,0.43642,0.50741
0.14997,77986.486,3.3859,0.13744,1.1854,,0.44488,0.50778
0.14998,78046.488,3.3884,0.13994,,0.8957,0.45334,0.50819
0.14999,78106.488,3.3909,0.14244,0.0,,0.46181,0.5086
0.14998,78166.488,3.393,0.14493,,1.0401,0.47029,0.50888
0.14998,78226.486,3.3948,0.14743,0.0,,0.47877,0.50915
0.14996,78286.486,3.3966,0.14993,0.87576,1.2678,0.48725,0.50935
0.14997,78346.487,3.3983,0.15243,,,0.49574,0.50964
0.14998,78406.488,3.3999,0.15493,0.0,0.0,0.50424,0.50992
0.14998,78466.486,3.4014,0.15743,,1.6167,0.51273,0.51014
0.14997,78526.487,3.4025,0.15993,0.0,,0.52124,0.51027
0.14998,78586.487,3.4038,0.16243,,0.0,0.52974,0.5105
0.14998,78646.489,3.4051,0.16493,0.0,,0.53825,0.5107
0.14997,78706.487,3.4062,0.16742,0.55407,0.0,0.54676,0.51083
0.14997,78766.486,3.4073,0.16992,,2.0395,0.55527,0.51099
0.14998,78826.488,3.4082,0.17242,0.0,,0.56379,0.51116
0.14997,78886.489,3.4092,0.17492,,0.0,0.57231,0.51128
0.14998,78946.487,3.4103,0.17742,0.0,,0.58083,0.51148
0.14998,79006.489,3.4112,0.17992,,0.0,0.58935,0.51161
0.14998,79066.486,3.412,0.18242,0.0,2.5252,0.59788,0.51173
0.14998,79126.488,3.4129,0.18492,,,0.6064,0.51187
0.14998,79186.488,3.4137,0.18742,0.0,0.0,0.61493,0.51199
0.14998,79246.489,3.4147,0.18992,,,0.62346,0.51214
0.14998,79306.488,3.4155,0.19241,0.0,0.0,0.632,0.51226
0.14998,79366.488,3.4162,0.19491,0.36958,2.9462,0.64053,0.51236
0.14998,79426.487,3.417,0.19741,,,0.64907,0.51248
0.14999,79486.488,3.4178,0.19991,0.0,,0.65761,0.51264
0.14997,79546.49,3.4187,0.20241,,0.0,0.66615,0.5127
0.14999,79606.487,3.4194,0.20491,0.0,,0.6747,0.51288
0.14998,79666.487,3.42,0.20741,,0.0,0.68324,0.51293
0.14999,79726.487,3.4207,0.20991,0.0,,0.69179,0.51307
0.14998,79786.487,3.4216,0.21241,,3.2871,0.70034,0.51317
0.14998,79846.486,3.4223,0.21491,0.0,,0.70889,0.51328
0.14998,79906.487,3.423,0.2174,,0.0,0.71745,0.51338
0.14998,79966.487,3.4236,0.2199,0.0,,0.726,0.51347
0.14998,80026.488,3.4243,0.2224,,0.0,0.73456,0.51358
0.14998,80086.487,3.425,0.2249,0.0,,0.74312,0.51368
0.14998,80146.487,3.4257,0.2274,,0.0,0.75167,0.51379
0.14997,80206.487,3.4265,0.2299,0.29455,3.5486,0.76024,0.51387
0.14997,80266.487,3.4272,0.2324,,,0.7688,0.51398
0.14998,80326.487,3.4278,0.2349,0.0,0.0,0.77736,0.5141
0.14998,80386.488,3.4284,0.23739,,,0.78593,0.51419
0.14998,80446.487,3.4291,0.23989,0.0,0.0,0.7945,0.5143
0.14997,80506.488,3.4299,0.24239,,,0.80307,0.51438
0.14998,80566.487,3.4305,0.24489,0.0,0.0,0.81164,0.51451
0.14997,80626.487,3.4311,0.24739,,,0.82021,0.51456
0.14998,80686.489,3.4316,0.24989,0.0,3.7771,0.82879,0.51467
0.14998,80746.488,3.4323,0.25239,,,0.83736,0.51478
0.14998,80806.488,3.4331,0.25489,0.0,0.0,0.84594,0.5149
0.14999,80866.488,3.4337,0.25739,,,0.85452,0.51502
0.14998,80926.488,3.4344,0.25989,0.0,0.0,0.8631,0.51509
0.14998,80986.489,3.4349,0.26238,,,0.87169,0.51517
0.14998,81046.487,3.4355,0.26488,0.0,0.0,0.88027,0.51526
0.14997,81106.488,3.4361,0.26738,0.26068,,0.88886,0.51531
0.14998,81166.488,3.4369,0.26988,,3.9149,0.89744,0.51547
0.14998,81226.486,3.4375,0.27238,0.0,,0.90603,0.51556
0.14997,81286.488,3.438,0.27488,,0.0,0.91462,0.5156
0.14998,81346.487,3.4386,0.27738,0.0,,0.92322,0.51572
0.14998,81406.487,3.4393,0.27988,,0.0,0.93181,0.51583
0.14998,81466.487,3.4401,0.28238,0.0,,0.9404,0.51595
0.14998,81526.487,3.4407,0.28487,,0.0,0.949,0.51604
0.14997,81586.488,3.4413,0.28737,0.0,,0.9576,0.51609
0.14998,81646.487,3.4418,0.28987,,3.9636,0.9662,0.5162
0.14997,81706.487,3.4425,0.29237,0.0,,0.9748,0.51627
0.14998,81766.487,3.4432,0.29487,,0.0,0.9834,0.51641
0.14998,81826.487,3.4438,0.29737,0.0,,0.99201,0.5165
0.14998,81886.487,3.4444,0.29987,,0.0,1.0006,0.51659
0.14998,81946.488,3.445,0.30237,0.0,,1.0092,0.51668
0.14997,82006.488,3.4456,0.30487,,0.0,1.0178,0.51674
0.14998,82066.488,3.4463,0.30737,0.2527,3.9382,1.0264,0.51688
0.14997,82126.487,3.447,0.30986,,,1.0351,0.51695
0.14998,82186.487,3.4476,0.31236,0.0,0.0,1.0437,0.51707
0.14998,82246.486,3.4481,0.31486,,,1.0523,0.51715
0.14997,82306.486,3.4488,0.31736,0.0,0.0,1.0609,0.51722
0.14998,82366.488,3.4494,0.31986,,,1.0695,0.51734
0.14997,82426.487,3.4503,0.32236,0.0,0.0,1.0782,0.51744
0.14998,82486.488,3.451,0.32486,,,1.0868,0.51758
0.14998,82546.487,3.4514,0.32736,0.0,3.8492,1.0954,0.51764
0.14998,82606.486,3.4521,0.32986,,,1.104,0.51775
0.14997,82666.486,3.4527,0.33236,0.0,0.0,1.1127,0.5178
0.14998,82726.486,3.4536,0.33486,,,1.1213,0.51797
0.14998,82786.488,3.4543,0.33735,0.0,0.0,1.1299,0.51808
0.14997,82846.486,3.4549,0.33985,,,1.1385,0.51813
0.14998,82906.488,3.4555,0.34235,0.0,0.0,1.1472,0.51826
0.14998,82966.487,3.4561,0.34485,0.2643,,1.1558,0.51835
0.14999,83026.487,3.457,0.34735,,3.6996,1.1645,0.51852
0.14998,83086.487,3.4577,0.34985,0.0,,1.1731,0.51859
0.14998,83146.487,3.4583,0.35235,,0.0,1.1817,0.51868
0.14998,83206.487,3.459,0.35485,0.0,,1.1904,0.51878
0.14998,83266.488,3.4597,0.35734,,0.0,1.199,0.51889
0.14998,83326.488,3.4605,0.35984,0.0,,1.2077,0.51901
0.14998,83386.488,3.4613,0.36234,,0.0,1.2163,0.51913
0.14998,83446.486,3.4618,0.36484,0.0,3.5263,1.225,0.5192
0.14998,83506.487,3.4626,0.36734,,,1.2336,0.51932
0.14998,83566.486,3.4635,0.36984,0.0,0.0,1.2423,0.51946
0.14998,83626.487,3.4643,0.37234,,,1.2509,0.51958
0.14998,83686.487,3.465,0.37484,0.0,0.0,1.2596,0.51968
0.14998,83746.487,3.4657,0.37734,,,1.2682,0.51979
0.14997,83806.488,3.4664,0.37983,0.29165,3.3183,1.2769,0.51986
0.14999,83866.489,3.4672,0.38233,,,1.2856,0.52005
0.14997,83926.487,3.4682,0.38483,0.0,0.0,1.2942,0.52013
0.14998,83986.489,3.4689,0.38733,,,1.3029,0.52027
0.14998,84046.488,3.4697,0.38983,0.0,0.0,1.3116,0.52039
0.14998,84106.488,3.4704,0.39233,,,1.3202,0.52049
0.14997,84166.488,3.4713,0.39483,0.0,3.1119,1.3289,0.52059
0.14998,84226.489,3.472,0.39733,,,1.3376,0.52073
0.14998,84286.487,3.4731,0.39983,0.0,0.0,1.3463,0.5209
0.14997,84346.487,3.4739,0.40233,,,1.355,0.52098
0.14999,84406.486,3.4747,0.40482,0.0,0.0,1.3636,0.52117
0.14998,84466.488,3.4755,0.40732,,,1.3723,0.52126
0.14997,84526.487,3.4763,0.40982,0.32922,2.9511,1.381,0.52134
0.14997,84586.487,3.4773,0.41232,,,1.3897,0.52149
0.14998,84646.487,3.4783,0.41482,0.0,0.0,1.3984,0.52168
0.14998,84706.487,3.4791,0.41732,,,1.4071,0.5218
0.14997,84766.487,3.4799,0.41982,0.0,0.0,1.4158,0.52188
0.14998,84826.488,3.4808,0.42232,,,1.4245,0.52205
0.14997,84886.488,3.4817,0.42482,0.0,2.7797,1.4332,0.52215
0.14997,84946.486,3.4828,0.42732,,,1.4419,0.52232
0.14998,85006.487,3.4838,0.42982,0.0,0.0,1.4506,0.5225
0.14997,85066.487,3.4847,0.43232,,,1.4593,0.5226
0.14998,85126.488,3.4855,0.43482,0.0,0.0,1.468,0.52276
0.14997,85186.487,3.4865,0.43731,0.36594,2.6617,1.4767,0.52287
0.14998,85246.488,3.4874,0.43981,,,1.4854,0.52304
0.14998,85306.486,3.4885,0.44231,0.0,0.0,1.4941,0.52321
0.14997,85366.488,3.4895,0.44481,,,1.5029,0.52332
0.14997,85426.487,3.4904,0.44731,0.0,0.0,1.5116,0.52346
0.14998,85486.488,3.4913,0.44981,,2.5616,1.5203,0.52363
0.14998,85546.487,3.4923,0.45231,0.0,,1.529,0.52378
0.14998,85606.488,3.4935,0.45481,,0.0,1.5378,0.52396
0.14998,85666.487,3.4945,0.45731,0.0,,1.5465,0.52411
0.14997,85726.487,3.4953,0.45981,,0.0,1.5552,0.52419
0.14998,85786.487,3.4963,0.46231,0.39332,2.4983,1.564,0.52438
0.14998,85846.487,3.4974,0.46481,,,1.5727,0.52454
0.14998,85906.487,3.4985,0.46731,0.0,0.0,1.5815,0.52471
0.14998,85966.487,3.4995,0.46981,,,1.5902,0.52486
0.14998,86026.488,3.5004,0.47231,0.0,0.0,1.599,0.52499
0.14997,86086.487,3.5014,0.4748,,2.4423,1.6077,0.5251
0.14998,86146.488,3.5025,0.4773,0.0,,1.6165,0.5253
0.14997,86206.487,3.5036,0.4798,,0.0,1.6252,0.52543
0.14997,86266.488,3.5047,0.4823,0.0,,1.634,0.5256
0.14998,86326.489,3.5057,0.4848,,0.0,1.6427,0.52578
0.14997,86386.488,3.5066,0.4873,0.41108,2.4188,1.6515,0.52588
0.14998,86446.488,3.5077,0.4898,,,1.6603,0.52608
0.14998,86506.487,3.5087,0.4923,0.0,0.0,1.669,0.52623
0.14998,86566.486,3.5099,0.4948,,,1.6778,0.52641
0.14998,86626.489,3.5109,0.4973,0.0,0.0,1.6866,0.52656
0.14998,86686.486,3.5118,0.4998,,2.4015,1.6953,0.5267
0.14998,86746.487,3.5128,0.5023,0.0,,1.7041,0.52685
0.14998,86806.489,3.5139,0.5048,,0.0,1.7129,0.52701
0.14997,86866.488,3.5151,0.50729,0.0,,1.7217,0.52716
0.14998,86926.487,3.5161,0.50979,0.41677,0.0,1.7305,0.52734
0.14998,86986.488,3.517,0.51229,,2.4127,1.7393,0.52748
0.14998,87046.487,3.518,0.51479,0.0,,1.7481,0.52763
0.14998,87106.487,3.5191,0.51729,,0.0,1.7568,0.52779
0.14998,87166.489,3.5202,0.51979,0.0,,1.7656,0.52796
0.14998,87226.488,3.5213,0.52229,,0.0,1.7744,0.52812
0.14998,87286.488,3.5223,0.52479,0.0,2.3953,1.7832,0.52827
0.14997,87346.487,3.5232,0.52729,,,1.792,0.52837
0.14997,87406.488,3.5243,0.52979,0.0,0.0,1.8009,0.52854
0.14997,87466.487,3.5253,0.53229,,,1.8097,0.52869
0.14998,87526.488,3.5265,0.53479,0.41261,2.4431,1.8185,0.5289
0.14998,87586.486,3.5274,0.53729,,,1.8273,0.52904
0.14998,87646.487,3.5283,0.53979,0.0,0.0,1.8361,0.52917
0.14998,87706.488,3.5293,0.54228,,,1.8449,0.52932
0.14998,87766.486,3.5305,0.54478,0.0,0.0,1.8537,0.5295
0.14997,87826.489,3.5315,0.54728,,2.4656,1.8626,0.52962
0.14997,87886.489,3.5325,0.54978,0.0,,1.8714,0.52977
0.14998,87946.487,3.5333,0.55228,,0.0,1.8802,0.52992
0.14997,88006.489,3.5343,0.55478,0.0,,1.8891,0.53004
0.14997,88066.487,3.5355,0.55728,,0.0,1.8979,0.53022
0.14997,88126.487,3.5365,0.55978,0.4032,2.487,1.9067,0.53037
0.14998,88186.487,3.5374,0.56228,,,1.9156,0.53054
0.14998,88246.488,3.5384,0.56478,0.0,0.0,1.9244,0.53069
0.14998,88306.487,3.5393,0.56728,,,1.9333,0.53082
0.14998,88366.488,3.5405,0.56978,0.0,0.0,1.9421,0.531
0.14997,88426.488,3.5415,0.57228,,2.4968,1.951,0.53112
0.14998,88486.488,3.5425,0.57478,0.0,,1.9598,0.5313
0.14998,88546.488,3.5433,0.57728,,0.0,1.9687,0.53142
0.14998,88606.487,3.5443,0.57977,0.0,,1.9775,0.53157
0.14998,88666.486,3.5454,0.58227,,0.0,1.9864,0.53174
0.14998,88726.489,3.5465,0.58477,0.39687,2.5404,1.9952,0.5319
0.14997,88786.488,3.5474,0.58727,,,2.0041,0.532
0.14998,88846.488,3.5483,0.58977,0.0,0.0,2.013,0.53217
0.14998,88906.487,3.5492,0.59227,,,2.0218,0.53231
0.14998,88966.488,3.5502,0.59477,0.0,0.0,2.0307,0.53246
0.14997,89026.488,3.5513,0.59727,,,2.0396,0.53259
0.14998,89086.486,3.5522,0.59977,0.0,2.5704,2.0485,0.53276
0.14998,89146.488,3.5531,0.60227,,,2.0574,0.53289
0.14997,89206.488,3.5541,0.60477,0.0,0.0,2.0662,0.53301
0.14998,89266.487,3.5552,0.60727,,,2.0751,0.53321
0.14997,89326.487,3.5562,0.60977,0.38836,0.0,2.084,0.53332
0.14997,89386.488,3.5571,0.61227,,2.5763,2.0929,0.53346
0.14998,89446.489,3.5579,0.61476,0.0,,2.1018,0.53361
0.14998,89506.487,3.5589,0.61726,,0.0,2.1107,0.53376
0.14998,89566.487,3.5599,0.61976,0.0,,2.1196,0.53391
0.14997,89626.487,3.5609,0.62226,,0.0,2.1285,0.53403
0.14997,89686.487,3.5618,0.62476,0.0,2.6669,2.1374,0.53416
0.14998,89746.486,3.5625,0.62726,,,2.1463,0.5343
0.14998,89806.488,3.5634,0.62976,0.0,0.0,2.1552,0.53444
0.14998,89866.487,3.5645,0.63226,,,2.1641,0.5346
0.14997,89926.488,3.5655,0.63476,0.0,0.0,2.173,0.53472
0.14999,89986.487,3.5663,0.63726,0.37289,,2.1819,0.53491
0.14998,90046.487,3.5671,0.63976,,2.7317,2.1908,0.53499
0.14998,90106.488,3.568,0.64226,0.0,,2.1997,0.53513
0.14998,90166.488,3.5691,0.64476,,0.0,2.2087,0.53529
0.14998,90226.488,3.5699,0.64726,0.0,,2.2176,0.53541
0.14999,90286.487,3.5707,0.64975,,0.0,2.2265,0.53557
0.14998,90346.487,3.5715,0.65225,0.0,2.802,2.2354,0.53565
0.14998,90406.489,3.5724,0.65475,,,2.2444,0.53579
0.14998,90466.487,3.5734,0.65725,0.0,0.0,2.2533,0.53594
0.14999,90526.488,3.5743,0.65975,,,2.2622,0.53611
0.14998,90586.488,3.5751,0.66225,0.0,0.0,2.2712,0.53619
0.14997,90646.487,3.5758,0.66475,,,2.2801,0.53626
0.14998,90706.488,3.5767,0.66725,0.34988,2.9109,2.289,0.53643
0.14998,90766.487,3.5776,0.66975,,,2.298,0.53657
0.14998,90826.488,3.5785,0.67225,0.0,0.0,2.3069,0.5367
0.14998,90886.488,3.5793,0.67475,,,2.3159,0.53682
0.14998,90946.489,3.58,0.67725,0.0,0.0,2.3248,0.53693
0.14997,91006.488,3.5808,0.67975,,,2.3338,0.53701
0.14997,91066.487,3.5816,0.68225,0.0,3.0082,2.3427,0.53713
0.14998,91126.487,3.5826,0.68475,,,2.3517,0.53732
0.14998,91186.487,3.5834,0.68725,0.0,0.0,2.3606,0.53744
0.14998,91246.487,3.5841,0.68974,,,2.3696,0.53754
0.14998,91306.488,3.5849,0.69224,0.0,0.0,2.3785,0.53766
0.14998,91366.487,3.5857,0.69474,,,2.3875,0.53778
0.14997,91426.487,3.5866,0.69724,0.32837,3.1109,2.3964,0.53788
0.14998,91486.487,3.5874,0.69974,,,2.4054,0.53804
0.14997,91546.488,3.5881,0.70224,0.0,0.0,2.4144,0.53811
0.14998,91606.488,3.5888,0.70474,,,2.4233,0.53825
0.14997,91666.488,3.5896,0.70724,0.0,0.0,2.4323,0.53833
0.14997,91726.488,3.5905,0.70974,,,2.4413,0.53847
0.14999,91786.488,3.5913,0.71224,0.0,0.0,2.4503,0.53866
0.14998,91846.486,3.5919,0.71474,,3.2052,2.4592,0.53871
0.14997,91906.487,3.5927,0.71724,0.0,,2.4682,0.5388
0.14998,91966.487,3.5934,0.71974,,0.0,2.4772,0.53894
0.14998,92026.487,3.5943,0.72223,0.0,,2.4862,0.53907
0.14998,92086.488,3.5951,0.72473,,0.0,2.4952,0.53919
0.14998,92146.488,3.5956,0.72723,0.0,,2.5042,0.53927
0.14997,92206.488,3.5963,0.72973,0.30626,3.334,2.5131,0.53934
0.14998,92266.489,3.5971,0.73223,,,2.5221,0.53949
0.14997,92326.487,3.598,0.73473,0.0,0.0,2.5311,0.53959
0.14997,92386.488,3.5987,0.73723,,,2.5401,0.5397
0.14998,92446.488,3.5993,0.73973,0.0,0.0,2.5491,0.53982
0.14998,92506.488,3.6,0.74223,,,2.5581,0.53993
0.14997,92566.489,3.6007,0.74473,0.0,0.0,2.5671,0.54
0.14998,92626.487,3.6015,0.74723,,3.5162,2.5761,0.54015
0.14997,92686.487,3.6022,0.74973,0.0,,2.5851,0.54022
0.14998,92746.487,3.6029,0.75223,,0.0,2.5941,0.54036
0.14997,92806.488,3.6034,0.75473,0.0,,2.6031,0.5404
0.14998,92866.487,3.6041,0.75722,,0.0,2.6121,0.54054
0.14997,92926.486,3.6049,0.75972,0.0,,2.6211,0.54063
0.14998,92986.486,3.6056,0.76222,,0.0,2.6301,0.54077
0.14999,93046.487,3.6063,0.76472,0.28042,,2.6392,0.54091
0.14998,93106.487,3.6068,0.76722,,3.6634,2.6482,0.54095
0.14999,93166.488,3.6074,0.76972,0.0,,2.6572,0.54107
0.14997,93226.488,3.6083,0.77222,,0.0,2.6662,0.54114
0.14999,93286.486,3.6089,0.77472,0.0,,2.6752,0.5413
0.14998,93346.486,3.6094,0.77722,,0.0,2.6842,0.54134
0.14998,93406.486,3.6101,0.77972,0.0,,2.6933,0.54144
0.14998,93466.489,3.6107,0.78222,,0.0,2.7023,0.54153
0.14998,93526.487,3.6115,0.78472,0.0,3.8486,2.7113,0.54165
0.14997,93586.487,3.6121,0.78722,,,2.7203,0.54171
0.14998,93646.487,3.6126,0.78971,0.0,0.0,2.7294,0.54182
0.14998,93706.487,3.6132,0.79221,,,2.7384,0.54191
0.14998,93766.489,3.6139,0.79471,0.0,0.0,2.7474,0.54201
0.14997,93826.487,3.6146,0.79721,,,2.7565,0.54208
0.14997,93886.488,3.6152,0.79971,0.0,0.0,2.7655,0.54217
0.14998,93946.488,3.6156,0.80221,,,2.7745,0.54227
0.14997,94006.488,3.6162,0.80471,0.25393,0.0,2.7836,0.54232
0.14998,94066.486,3.617,0.80721,,4.0569,2.7926,0.54248
0.14998,94126.487,3.6176,0.80971,0.0,,2.8016,0.54257
0.14997,94186.488,3.6182,0.81221,,0.0,2.8107,0.54262
0.14997,94246.488,3.6187,0.81471,0.0,,2.8197,0.5427
0.14998,94306.487,3.6193,0.81721,,0.0,2.8288,0.54282
0.14998,94366.487,3.62,0.81971,0.0,,2.8378,0.54293
0.14997,94426.487,3.6206,0.8222,,0.0,2.8469,0.54298
0.14997,94486.489,3.6211,0.8247,0.0,,2.8559,0.54306
0.14998,94546.487,3.6216,0.8272,,4.1916,2.865,0.54317
0.14998,94606.488,3.6222,0.8297,0.0,,2.874,0.54326
0.14997,94666.487,3.623,0.8322,,0.0,2.8831,0.54334
0.14997,94726.487,3.6236,0.8347,0.0,,2.8921,0.54343
0.14998,94786.487,3.624,0.8372,,0.0,2.9012,0.54353
0.14998,94846.487,3.6246,0.8397,0.0,,2.9102,0.54362
0.14997,94906.488,3.6251,0.8422,,0.0,2.9193,0.54366
0.14997,94966.487,3.6259,0.8447,0.0,,2.9284,0.54378
0.14998,95026.486,3.6265,0.8472,0.23631,4.2801,2.9374,0.5439
0.14998,95086.487,3.6269,0.8497,,,2.9465,0.54396
0.14997,95146.488,3.6275,0.8522,0.0,,2.9556,0.54402
0.14997,95206.487,3.6282,0.85469,,0.0,2.9646,0.54412
0.14997,95266.487,3.6287,0.85719,0.0,,2.9737,0.5442
0.14998,95326.487,3.6292,0.85969,,0.0,2.9828,0.54431
0.14997,95386.487,3.6297,0.86219,0.0,,2.9918,0.54435
0.14998,95446.487,3.6303,0.86469,,0.0,3.0009,0.54447
0.14998,95506.488,3.631,0.86719,0.0,,3.01,0.54458
0.14998,95566.487,3.6316,0.86969,,4.351,3.0191,0.54467
0.14998,95626.488,3.6321,0.87219,0.0,,3.0281,0.54474
0.14998,95686.487,3.6326,0.87469,,0.0,3.0372,0.54482
0.14997,95746.488,3.6331,0.87719,0.0,,3.0463,0.54486
0.14998,95806.489,3.6339,0.87969,,0.0,3.0554,0.54501
0.14997,95866.486,3.6345,0.88219,0.0,,3.0645,0.54507
0.14997,95926.489,3.6349,0.88469,,0.0,3.0735,0.54513
0.14998,95986.488,3.6354,0.88719,0.0,,3.0826,0.54524
0.14998,96046.488,3.636,0.88969,0.22786,0.0,3.0917,0.54533
0.14997,96106.487,3.6367,0.89218,,4.4255,3.1008,0.5454
0.14998,96166.488,3.6372,0.89468,0.0,,3.1099,0.54551
0.14999,96226.488,3.6376,0.89718,,0.0,3.119,0.5456
0.14998,96286.487,3.6382,0.89968,0.0,,3.1281,0.54566
0.14998,96346.488,3.6388,0.90218,,0.0,3.1372,0.54575
0.14997,96406.488,3.6395,0.90468,0.0,,3.1463,0.54582
0.14998,96466.487,3.6401,0.90718,,0.0,3.1554,0.54594
0.14997,96526.487,3.6404,0.90968,0.0,,3.1644,0.54595
0.14997,96586.487,3.641,0.91218,,0.0,3.1735,0.54604
0.14998,96646.486,3.6416,0.91468,0.0,4.4768,3.1827,0.54617
0.14998,96706.489,3.6423,0.91718,,,3.1918,0.54627
0.14997,96766.488,3.6428,0.91968,0.0,0.0,3.2009,0.54631
0.14997,96826.487,3.6432,0.92218,,,3.21,0.54637
0.14997,96886.487,3.6438,0.92467,0.0,0.0,3.2191,0.54646
0.14997,96946.487,3.6445,0.92717,,,3.2282,0.54657
0.14998,97006.488,3.645,0.92967,0.0,0.0,3.2373,0.54668
0.14998,97066.486,3.6454,0.93217,,,3.2464,0.54674
0.14998,97126.487,3.6459,0.93467,0.22311,0.0,3.2555,0.54681
0.14997,97186.488,3.6465,0.93717,,4.5316,3.2646,0.54687
0.14998,97246.487,3.6472,0.93967,0.0,,3.2737,0.54701
0.14998,97306.486,3.6478,0.94217,,0.0,3.2829,0.5471
0.14998,97366.487,3.6483,0.94467,0.0,,3.292,0.54717
0.14997,97426.488,3.6488,0.94717,,0.0,3.3011,0.54721
0.14998,97486.489,3.6493,0.94967,0.0,,3.3102,0.54732
0.14997,97546.488,3.65,0.95217,,0.0,3.3193,0.54739
0.14997,97606.488,3.6506,0.95467,0.0,,3.3285,0.54748
0.14997,97666.488,3.651,0.95717,,0.0,3.3376,0.54754
0.14998,97726.487,3.6515,0.95967,0.0,4.5263,3.3467,0.54765
0.14998,97786.487,3.652,0.96216,,,3.3558,0.54773
0.14997,97846.487,3.6528,0.96466,0.0,0.0,3.365,0.54781
0.14998,97906.487,3.6533,0.96716,,,3.3741,0.54792
0.14997,97966.488,3.6537,0.96966,0.0,0.0,3.3832,0.54795
0.14997,98026.487,3.6543,0.97216,,,3.3924,0.54804
0.14998,98086.488,3.6548,0.97466,0.0,0.0,3.4015,0.54815
0.14999,98146.488,3.6555,0.97716,,,3.4106,0.54829
0.14998,98206.489,3.6561,0.97966,0.22146,0.0,3.4198,0.54834
0.14997,98266.487,3.6565,0.98216,,4.4721,3.4289,0.54837
0.14998,98326.487,3.6571,0.98466,0.0,,3.438,0.54849
0.14998,98386.488,3.6578,0.98716,,0.0,3.4472,0.5486
0.14999,98446.488,3.6584,0.98966,0.0,,3.4563,0.54872
0.14997,98506.487,3.6589,0.99216,,0.0,3.4655,0.54873
0.14997,98566.488,3.6593,0.99466,0.0,,3.4746,0.54879
0.14998,98626.487,3.6599,0.99715,,0.0,3.4838,0.54891
0.14997,98686.487,3.6606,0.99965,0.0,,3.4929,0.54898
0.14998,98746.487,3.6612,1.0022,,0.0,3.5021,0.54911
0.14998,98806.487,3.6617,1.0047,0.0,4.4292,3.5112,0.54918
0.14997,98866.489,3.6622,1.0072,,,3.5204,0.54922
0.14998,98926.488,3.6628,1.0097,0.0,0.0,3.5295,0.54935
0.14998,98986.487,3.6634,1.0122,,,3.5387,0.54944
0.14997,99046.488,3.6641,1.0147,0.0,0.0,3.5478,0.54951
0.14998,99106.487,3.6646,1.0171,,,3.557,0.54962
0.14998,99166.487,3.665,1.0196,0.0,0.0,3.5661,0.54968
0.14998,99226.487,3.6656,1.0221,,,3.5753,0.54977
0.14998,99286.487,3.6662,1.0246,0.22786,0.0,3.5845,0.54986
0.14997,99346.487,3.6669,1.0271,,4.3427,3.5936,0.54992
0.14998,99406.488,3.6676,1.0296,0.0,,3.6028,0.55007
0.14998,99466.488,3.668,1.0321,,0.0,3.612,0.55013
0.14998,99526.486,3.6686,1.0346,0.0,,3.6211,0.55022
0.14998,99586.488,3.6693,1.0371,,0.0,3.6303,0.55032
0.14997,99646.488,3.6699,1.0396,0.0,,3.6395,0.55037
0.14998,99706.488,3.6705,1.0421,,0.0,3.6486,0.5505
0.14998,99766.487,3.6709,1.0446,0.0,,3.6578,0.55056
0.14997,99826.487,3.6715,1.0471,,4.2209,3.667,0.55061
0.14997,99886.487,3.6723,1.0496,0.0,,3.6762,0.55073
0.14998,99946.487,3.6729,1.0521,,0.0,3.6853,0.55086
0.14998,100006.487,3.6734,1.0546,0.0,,3.6945,0.55094
0.14997,100066.489,3.6739,1.0571,,0.0,3.7037,0.55097
0.14998,100126.487,3.6745,1.0596,0.0,,3.7129,0.5511
0.14998,100186.487,3.6753,1.0621,,0.0,3.7221,0.55122
0.14997,100246.487,3.676,1.0646,0.0,,3.7313,0.55129
0.14998,100306.489,3.6765,1.0671,0.23951,4.1094,3.7405,0.5514
0.14998,100366.488,3.677,1.0696,,,3.7496,0.55148
0.14998,100426.489,3.6777,1.0721,0.0,0.0,3.7588,0.55158
0.14997,100486.487,3.6784,1.0746,,,3.768,0.55165
0.14997,100546.488,3.6791,1.0771,0.0,0.0,3.7772,0.55175
0.14997,100606.489,3.6797,1.0796,,,3.7864,0.55184
0.14998,100666.489,3.6802,1.0821,0.0,0.0,3.7956,0.55196
0.14998,100726.488,3.6808,1.0846,,,3.8048,0.55205
0.14997,100786.488,3.6816,1.0871,0.0,3.9873,3.814,0.55213
0.14998,100846.487,3.6822,1.0896,,,3.8232,0.55226
0.14998,100906.487,3.6829,1.0921,0.0,0.0,3.8324,0.55236
0.14998,100966.486,3.6834,1.0946,,,3.8416,0.55244
0.14998,101026.488,3.684,1.0971,0.0,0.0,3.8508,0.55253
0.14998,101086.487,3.6846,1.0996,,,3.86,0.55262
0.14998,101146.488,3.6854,1.1021,0.0,0.0,3.8692,0.55274
0.14998,101206.488,3.6861,1.1046,0.25361,,3.8785,0.55284
0.14997,101266.488,3.6868,1.1071,,3.8766,3.8877,0.55291
0.14997,101326.487,3.6872,1.1096,0.0,,3.8969,0.55297
0.14998,101386.487,3.6879,1.1121,,0.0,3.9061,0.55311
0.14998,101446.488,3.6885,1.1146,0.0,,3.9153,0.5532
0.14998,101506.489,3.6893,1.1171,,0.0,3.9245,0.55332
0.14997,101566.487,3.6901,1.1196,0.0,,3.9338,0.5534
0.14998,101626.489,3.6907,1.1221,,0.0,3.943,0.55353
0.14997,101686.487,3.6913,1.1246,0.0,,3.9522,0.55358
0.14997,101746.487,3.6919,1.1271,,3.7692,3.9614,0.55367
0.14998,101806.487,3.6927,1.1296,,,3.9707,0.55383
0.14998,101866.487,3.6935,1.1321,0.0,0.0,3.9799,0.55395
0.14998,101926.488,3.6941,1.1346,,,3.9891,0.55404
0.14997,101986.488,3.6947,1.1371,0.0,0.0,3.9984,0.55409
0.14996,102046.487,3.6954,1.1396,,,4.0076,0.55416
0.14998,102106.488,3.6962,1.1421,0.2704,0.0,4.0168,0.55436
0.14998,102166.487,3.6969,1.1446,,3.6169,4.0261,0.55446
0.14998,102226.488,3.6975,1.1471,0.0,,4.0353,0.55455
0.14998,102286.486,3.6982,1.1496,,0.0,4.0445,0.55466
0.14998,102346.487,3.6989,1.1521,0.0,,4.0538,0.55476
0.14998,102406.488,3.6996,1.1546,,0.0,4.063,0.55487
0.14997,102466.488,3.7005,1.1571,0.0,,4.0723,0.55496
0.14998,102526.488,3.7012,1.1596,,0.0,4.0815,0.55511
0.14997,102586.488,3.7018,1.1621,0.0,3.5169,4.0908,0.55516
0.14997,102646.487,3.7024,1.1646,,,4.1,0.55525
0.14998,102706.488,3.7033,1.1671,0.0,0.0,4.1093,0.55542
0.14997,102766.487,3.7041,1.1696,,,4.1185,0.5555
0.14998,102826.488,3.7048,1.1721,0.0,0.0,4.1278,0.55565
0.14999,102886.487,3.7054,1.1746,,,4.1371,0.55577
0.14998,102946.487,3.7061,1.1771,0.28786,0.0,4.1463,0.55584
0.14998,103006.487,3.7071,1.1796,,3.4177,4.1556,0.55599
0.14998,103066.488,3.7078,1.1821,0.0,,4.1649,0.5561
0.14998,103126.487,3.7084,1.1846,,0.0,4.1741,0.55619
0.14998,103186.487,3.7091,1.1871,0.0,,4.1834,0.55629
0.14998,103246.487,3.7099,1.1896,,0.0,4.1927,0.55641
0.14998,103306.489,3.7108,1.1921,0.0,,4.2019,0.55655
0.14998,103366.486,3.7116,1.1946,,3.3202,4.2112,0.55667
0.14998,103426.487,3.7122,1.1971,0.0,,4.2205,0.55676
0.14998,103486.488,3.713,1.1996,,0.0,4.2298,0.55688
0.14997,103546.486,3.7138,1.2021,0.0,,4.2391,0.55696
0.14998,103606.487,3.7147,1.2046,,0.0,4.2483,0.55713
0.14998,103666.487,3.7155,1.2071,0.0,,4.2576,0.55725
0.14997,103726.487,3.716,1.2096,0.30429,0.0,4.2669,0.55729
0.14997,103786.486,3.7169,1.2121,,3.2206,4.2762,0.55742
0.14998,103846.487,3.7177,1.2146,0.0,,4.2855,0.55758
0.14998,103906.488,3.7186,1.2171,,0.0,4.2948,0.55772
0.14998,103966.487,3.7194,1.2196,0.0,,4.3041,0.55784
0.14997,104026.487,3.7201,1.2221,,0.0,4.3134,0.5579
0.14998,104086.487,3.7208,1.2246,0.0,,4.3227,0.55805
0.14997,104146.487,3.7217,1.2271,,3.1392,4.332,0.55814
0.14998,104206.487,3.7226,1.2296,0.0,,4.3413,0.55832
0.14998,104266.487,3.7234,1.2321,,0.0,4.3506,0.55844
0.14997,104326.486,3.724,1.2346,0.0,,4.3599,0.55849
0.14997,104386.487,3.7249,1.2371,,0.0,4.3692,0.55862
0.14998,104446.488,3.7256,1.2396,0.0,,4.3785,0.55877
0.14998,104506.487,3.7267,1.2421,0.32087,3.0776,4.3878,0.55893
0.14998,104566.487,3.7275,1.2446,,,4.3971,0.55905
0.14998,104626.486,3.7282,1.2471,0.0,0.0,4.4064,0.55916
0.14998,104686.487,3.729,1.2496,,,4.4158,0.55928
0.14997,104746.488,3.7298,1.2521,0.0,0.0,4.4251,0.55936
0.14997,104806.487,3.7306,1.2546,,,4.4344,0.55948
0.14998,104866.487,3.7315,1.2571,0.0,3.0482,4.4437,0.55965
0.14998,104926.488,3.7325,1.2596,,,4.4531,0.5598
0.14997,104986.487,3.7332,1.2621,0.0,0.0,4.4624,0.55987
0.14998,105046.487,3.7339,1.2646,,,4.4717,0.56001
0.14998,105106.488,3.7348,1.2671,0.0,0.0,4.4811,0.56015
0.14997,105166.487,3.7358,1.2696,,,4.4904,0.56026
0.14997,105226.488,3.7366,1.2721,0.33243,2.9728,4.4997,0.56038
0.14997,105286.486,3.7374,1.2746,,,4.5091,0.5605
0.14998,105346.489,3.7382,1.2771,0.0,0.0,4.5184,0.56066
0.14998,105406.489,3.739,1.2796,,,4.5278,0.56078
0.14998,105466.488,3.74,1.2821,0.0,0.0,4.5371,0.56093
0.14998,105526.488,3.7409,1.2846,,,4.5464,0.56106
0.14998,105586.487,3.7418,1.2871,0.0,2.9381,4.5558,0.5612
0.14997,105646.487,3.7424,1.2896,,,4.5652,0.56125
0.14998,105706.488,3.7433,1.2921,0.0,0.0,4.5745,0.56142
0.14997,105766.488,3.7443,1.2946,,,4.5839,0.56153
0.14998,105826.487,3.7452,1.2971,0.0,0.0,4.5932,0.56171
0.14998,105886.487,3.7459,1.2996,,,4.6026,0.56181
0.14998,105946.486,3.7467,1.3021,0.34106,2.9252,4.6119,0.56193
0.14998,106006.488,3.7476,1.3046,,,4.6213,0.56207
0.14998,106066.487,3.7486,1.3071,0.0,0.0,4.6307,0.56222
0.14997,106126.488,3.7495,1.3096,,,4.6401,0.56231
0.14998,106186.487,3.7502,1.3121,0.0,0.0,4.6494,0.56245
0.14997,106246.488,3.751,1.3146,,,4.6588,0.56254
0.14997,106306.487,3.7519,1.3171,0.0,2.8976,4.6682,0.56267
0.14998,106366.487,3.7529,1.3196,,,4.6776,0.56286
0.14998,106426.489,3.7538,1.3221,0.0,0.0,4.6869,0.56299
0.14998,106486.487,3.7545,1.3246,,,4.6963,0.5631
0.14998,106546.486,3.7553,1.3271,0.0,0.0,4.7057,0.56322
0.14997,106606.487,3.7562,1.3296,0.34557,,4.7151,0.56332
0.14998,106666.488,3.7573,1.3321,,2.8853,4.7245,0.56352
0.14997,106726.487,3.7581,1.3346,0.0,,4.7339,0.5636
0.14998,106786.487,3.7588,1.3371,,0.0,4.7433,0.56374
0.14998,106846.488,3.7597,1.3396,0.0,,4.7527,0.56388
0.14998,106906.486,3.7606,1.3421,,0.0,4.7621,0.56401
0.14998,106966.487,3.7616,1.3446,0.0,2.8874,4.7715,0.56416
0.14999,107026.487,3.7625,1.3471,,,4.7809,0.56434
0.14998,107086.488,3.7631,1.3496,0.0,0.0,4.7903,0.56439
0.14997,107146.487,3.764,1.3521,,,4.7997,0.56449
0.14998,107206.487,3.7649,1.3546,0.0,0.0,4.8091,0.56466
0.14998,107266.487,3.7659,1.3571,,,4.8185,0.56481
0.14998,107326.488,3.7668,1.3596,0.34614,2.8747,4.8279,0.56494
0.14998,107386.488,3.7675,1.3621,,,4.8373,0.56505
0.14997,107446.487,3.7683,1.3645,0.0,0.0,4.8467,0.56513
0.14997,107506.488,3.7692,1.367,,,4.8562,0.56527
0.14998,107566.488,3.7703,1.3695,0.0,0.0,4.8656,0.56547
0.14997,107626.488,3.7711,1.372,,,4.875,0.56555
0.14998,107686.488,3.7718,1.3745,0.0,2.891,4.8844,0.56569
0.14997,107746.487,3.7727,1.377,,,4.8939,0.56579
0.14997,107806.487,3.7735,1.3795,0.0,0.0,4.9033,0.56591
0.14997,107866.487,3.7746,1.382,,,4.9127,0.56608
0.14997,107926.486,3.7755,1.3845,0.0,0.0,4.9221,0.56621
0.14997,107986.487,3.7762,1.387,0.34634,,4.9316,0.56632
0.14998,108046.487,3.777,1.3895,,2.901,4.941,0.56647
0.14997,108106.487,3.7778,1.392,0.0,,4.9505,0.56656
0.14998,108166.486,3.7789,1.3945,,0.0,4.9599,0.56676
0.14997,108226.487,3.7797,1.397,0.0,,4.9694,0.56684
0.14997,108286.488,3.7805,1.3995,,0.0,4.9788,0.56696
0.14998,108346.487,3.7813,1.402,0.0,,4.9883,0.56712
0.14997,108406.489,3.7821,1.4045,,2.9057,4.9977,0.5672
0.14997,108466.487,3.7832,1.407,0.0,,5.0072,0.56737
0.14997,108526.488,3.784,1.4095,,0.0,5.0166,0.56749
0.14998,108586.488,3.7847,1.412,0.0,,5.0261,0.56763
0.14998,108646.487,3.7855,1.4145,,0.0,5.0355,0.56775
0.14997,108706.488,3.7864,1.417,0.34243,,5.045,0.56785
0.14998,108766.487,3.7873,1.4195,,2.935,5.0545,0.56802
0.14997,108826.487,3.7883,1.422,0.0,,5.0639,0.56813
0.14998,108886.488,3.7891,1.4245,,0.0,5.0734,0.56829
0.14997,108946.488,3.7898,1.427,0.0,,5.0829,0.56836
0.14999,109006.486,3.7906,1.4295,,0.0,5.0923,0.56855
0.14998,109066.488,3.7916,1.432,0.0,2.957,5.1018,0.56866
0.14999,109126.488,3.7925,1.4345,,,5.1113,0.56884
0.14996,109186.489,3.7933,1.437,0.0,0.0,5.1208,0.56884
0.14998,109246.489,3.794,1.4395,,,5.1303,0.56902
0.14998,109306.487,3.7948,1.442,0.0,0.0,5.1397,0.56914
0.14998,109366.487,3.7958,1.4445,,,5.1492,0.56929
0.14998,109426.487,3.7967,1.447,0.33797,2.9803,5.1587,0.56943
0.14998,109486.488,3.7975,1.4495,,,5.1682,0.56955
0.14997,109546.486,3.7982,1.452,0.0,0.0,5.1777,0.56962
0.14999,109606.487,3.799,1.4545,,,5.1872,0.56981
0.14998,109666.488,3.7999,1.457,0.0,0.0,5.1967,0.56991
0.14998,109726.488,3.8008,1.4595,,,5.2062,0.57004
0.14997,109786.487,3.8016,1.462,0.0,3.0004,5.2157,0.57013
0.14998,109846.488,3.8023,1.4645,,,5.2252,0.57027
0.14996,109906.488,3.8031,1.467,0.0,0.0,5.2347,0.57031
0.14998,109966.488,3.8042,1.4695,,,5.2442,0.57055
0.14998,110026.487,3.805,1.472,0.0,0.0,5.2537,0.57067
0.14997,110086.489,3.8057,1.4745,,,5.2632,0.57074
0.14997,110146.486,3.8065,1.477,0.33137,3.0213,5.2727,0.57086
0.14998,110206.488,3.8073,1.4795,,,5.2822,0.57102
0.14997,110266.487,3.8083,1.482,0.0,0.0,5.2917,0.57113
0.14998,110326.487,3.8091,1.4845,,,5.3013,0.57129
0.14998,110386.488,3.8099,1.487,0.0,0.0,5.3108,0.57141
0.14997,110446.488,3.8106,1.4895,,,5.3203,0.57148
0.14997,110506.489,3.8114,1.492,0.0,0.0,5.3298,0.5716
0.14999,110566.488,3.8124,1.4945,,3.0395,5.3394,0.57182
0.14997,110626.487,3.8132,1.497,0.0,,5.3489,0.57187
0.14998,110686.488,3.8138,1.4995,,0.0,5.3584,0.57199
0.14998,110746.487,3.8146,1.502,0.0,,5.368,0.57211
0.14997,110806.488,3.8155,1.5045,,0.0,5.3775,0.57221
0.14998,110866.486,3.8165,1.507,0.32792,,5.387,0.5724
0.14998,110926.488,3.8172,1.5095,,3.0621,5.3966,0.5725
0.14998,110986.488,3.818,1.512,0.0,,5.4061,0.57262
0.14999,111046.487,3.8187,1.5145,,0.0,5.4157,0.57277
0.14998,111106.487,3.8195,1.517,0.0,,5.4252,0.57285
0.14998,111166.488,3.8205,1.5195,,0.0,5.4347,0.573
0.14998,111226.489,3.8213,1.522,0.0,,5.4443,0.57312
0.14997,111286.487,3.8221,1.5245,,3.0908,5.4538,0.5732
0.14997,111346.487,3.8228,1.527,0.0,,5.4634,0.57331
0.14998,111406.488,3.8235,1.5295,,0.0,5.473,0.57345
0.14998,111466.487,3.8244,1.532,0.0,,5.4825,0.57358
0.14998,111526.489,3.8253,1.5345,,0.0,5.4921,0.57372
0.14998,111586.488,3.8261,1.537,0.0,,5.5016,0.57384
0.14998,111646.487,3.8268,1.5395,0.32125,3.1247,5.5112,0.57394
0.14998,111706.488,3.8275,1.542,,,5.5208,0.57405
0.14998,111766.487,3.8284,1.5445,0.0,0.0,5.5303,0.57418
0.14998,111826.486,3.8293,1.547,,,5.5399,0.57432
0.14997,111886.487,3.8301,1.5495,0.0,0.0,5.5495,0.5744
0.14998,111946.487,3.8308,1.552,,,5.559,0.57454
0.14997,112006.489,3.8315,1.5545,0.0,3.1211,5.5686,0.57461
0.14998,112066.487,3.8324,1.557,,,5.5782,0.57478
0.14997,112126.488,3.8332,1.5595,0.0,0.0,5.5878,0.57487
0.14998,112186.486,3.8341,1.562,,,5.5974,0.57504
0.14997,112246.486,3.8349,1.5645,0.0,0.0,5.6069,0.57512
0.14997,112306.486,3.8355,1.567,,,5.6165,0.57521
0.14998,112366.487,3.8363,1.5695,0.32069,0.0,5.6261,0.57537
0.14997,112426.488,3.8372,1.572,,3.1246,5.6357,0.57546
0.14998,112486.487,3.8381,1.5745,0.0,,5.6453,0.57564
0.14997,112546.488,3.8389,1.577,,0.0,5.6549,0.57572
0.14998,112606.487,3.8395,1.5795,0.0,,5.6645,0.57585
0.14998,112666.487,3.8403,1.582,,0.0,5.6741,0.57597
0.14997,112726.488,3.8412,1.5845,0.0,,5.6837,0.57606
0.14997,112786.487,3.8421,1.587,,3.1189,5.6933,0.5762
0.14998,112846.488,3.8429,1.5895,0.0,,5.7029,0.57636
0.14997,112906.489,3.8435,1.592,,0.0,5.7125,0.57641
0.14998,112966.488,3.8443,1.5945,0.0,,5.7221,0.57657
0.14998,113026.488,3.8452,1.597,,0.0,5.7317,0.5767
0.14998,113086.487,3.8461,1.5995,0.0,,5.7413,0.57684
0.14998,113146.488,3.8469,1.602,0.3205,3.1229,5.7509,0.57696
0.14997,113206.487,3.8476,1.6045,,,5.7605,0.57702
0.14998,113266.489,3.8483,1.607,0.0,0.0,5.7702,0.57717
0.14998,113326.486,3.8492,1.6095,,,5.7798,0.5773
0.14997,113386.488,3.8501,1.612,0.0,0.0,5.7894,0.5774
0.14997,113446.487,3.8509,1.6145,,,5.799,0.57752
0.14997,113506.487,3.8516,1.617,0.0,3.1424,5.8086,0.57762
0.14998,113566.487,3.8523,1.6195,,,5.8183,0.57777
0.14997,113626.487,3.8531,1.622,0.0,0.0,5.8279,0.57785
0.14997,113686.489,3.8541,1.6245,,,5.8375,0.578
0.14998,113746.487,3.8549,1.627,0.0,0.0,5.8472,0.57816
0.14998,113806.487,3.8555,1.6295,,,5.8568,0.57825
0.14998,113866.487,3.8563,1.632,0.31943,0.0,5.8664,0.57837
0.14998,113926.488,3.8571,1.6345,,3.1289,5.8761,0.57849
0.14998,113986.488,3.858,1.637,0.0,,5.8857,0.57862
0.14996,114046.487,3.8589,1.6395,,0.0,5.8954,0.57868
0.14998,114106.486,3.8596,1.642,0.0,,5.905,0.57886
0.14997,114166.487,3.8604,1.6445,,0.0,5.9147,0.57894
0.14997,114226.488,3.8611,1.647,0.0,,5.9243,0.57905
0.14997,114286.488,3.862,1.6495,,3.1206,5.934,0.57918
0.14997,114346.489,3.8629,1.652,0.0,,5.9436,0.57932
0.14997,114406.487,3.8637,1.6545,,0.0,5.9533,0.57944
0.14998,114466.487,3.8643,1.657,0.0,,5.9629,0.57957
0.14998,114526.486,3.8651,1.6595,,0.0,5.9726,0.57969
0.14998,114586.489,3.8661,1.662,0.0,,5.9822,0.57984
0.14998,114646.487,3.8669,1.6645,0.32019,3.1336,5.9919,0.57996
0.14998,114706.488,3.8676,1.667,,,6.0016,0.58006
0.14998,114766.487,3.8683,1.6695,0.0,0.0,6.0112,0.58017
0.14998,114826.489,3.8691,1.672,,,6.0209,0.58029
0.15,114886.488,3.8701,1.6745,0.0,0.0,6.0306,0.58052
0.15,114946.489,3.871,1.677,,,6.0403,0.58065
0.14998,115006.487,3.8717,1.6795,0.0,3.0765,6.0499,0.58068
0.14998,115066.489,3.8723,1.682,,,6.0596,0.58077
0.14997,115126.488,3.8732,1.6845,0.0,0.0,6.0693,0.58086
0.14997,115186.487,3.8741,1.687,,,6.079,0.581
0.14998,115246.487,3.875,1.6895,0.0,0.0,6.0887,0.58117
0.14997,115306.488,3.8758,1.692,,,6.0983,0.58125
0.14997,115366.488,3.8764,1.6945,0.32381,0.0,6.108,0.58134
0.14998,115426.488,3.8772,1.697,,3.0842,6.1177,0.5815
0.14997,115486.487,3.8781,1.6995,0.0,,6.1274,0.5816
0.14997,115546.487,3.879,1.702,,0.0,6.1371,0.58173
0.14998,115606.487,3.8799,1.7045,0.0,,6.1468,0.58191
0.14998,115666.487,3.8807,1.707,,0.0,6.1565,0.58203
0.14998,115726.487,3.8814,1.7095,0.0,,6.1662,0.58213
0.14997,115786.486,3.8822,1.7119,,3.0625,6.1759,0.58221
0.14997,115846.487,3.8832,1.7144,0.0,,6.1856,0.58236
0.14998,115906.488,3.884,1.7169,,0.0,6.1953,0.58252
0.14997,115966.486,3.8848,1.7194,0.0,,6.205,0.5826
0.14998,116026.487,3.8854,1.7219,,0.0,6.2147,0.58273
0.14998,116086.488,3.8863,1.7244,0.32739,,6.2244,0.58287
0.14998,116146.487,3.8872,1.7269,,3.028,6.2342,0.583
0.14999,116206.487,3.8881,1.7294,0.0,,6.2439,0.58318
0.14998,116266.487,3.8889,1.7319,,0.0,6.2536,0.58326
0.14998,116326.487,3.8896,1.7344,0.0,,6.2633,0.58336
0.14998,116386.487,3.8905,1.7369,,0.0,6.273,0.5835
0.14997,116446.488,3.8914,1.7394,0.0,,6.2828,0.58359
0.14997,116506.486,3.8923,1.7419,,2.9995,6.2925,0.58373
0.14999,116566.487,3.8931,1.7444,0.0,,6.3022,0.58393
0.14998,116626.489,3.8938,1.7469,,0.0,6.3119,0.58399
0.14997,116686.486,3.8946,1.7494,0.0,,6.3217,0.58407
0.14997,116746.488,3.8956,1.7519,,0.0,6.3314,0.58422
0.14998,116806.488,3.8965,1.7544,0.33439,,6.3411,0.5844
0.14998,116866.489,3.8972,1.7569,,2.9863,6.3509,0.5845
0.14998,116926.487,3.898,1.7594,0.0,,6.3606,0.58462
0.14997,116986.488,3.8988,1.7619,,0.0,6.3704,0.5847
0.14998,117046.486,3.8997,1.7644,0.0,,6.3801,0.58488
0.14998,117106.486,3.9007,1.7669,,0.0,6.3899,0.58503
0.14999,117166.488,3.9015,1.7694,0.0,,6.3996,0.58519
0.14998,117226.488,3.9021,1.7719,,2.9937,6.4094,0.58524
0.14998,117286.488,3.903,1.7744,0.0,,6.4191,0.58537
0.14998,117346.488,3.9038,1.7769,,0.0,6.4289,0.58549
0.14997,117406.488,3.9048,1.7794,0.0,,6.4386,0.5856
0.14998,117466.486,3.9056,1.7819,,0.0,6.4484,0.58576
0.14997,117526.489,3.9063,1.7844,0.3311,,6.4582,0.58583
0.14997,117586.488,3.907,1.7869,,3.0513,6.4679,0.58593
0.14998,117646.489,3.9078,1.7894,0.0,,6.4777,0.58609
0.14998,117706.487,3.9088,1.7919,,0.0,6.4875,0.58624
0.14997,117766.486,3.9096,1.7944,0.0,,6.4972,0.58632
0.14997,117826.487,3.9102,1.7969,,0.0,6.507,0.58641
0.14998,117886.488,3.911,1.7994,0.0,,6.5168,0.58657
0.14998,117946.488,3.9117,1.8019,,3.1829,6.5265,0.58668
0.14997,118006.487,3.9127,1.8044,0.0,,6.5363,0.58679
0.14997,118066.489,3.9134,1.8069,,0.0,6.5461,0.58689
0.14998,118126.487,3.914,1.8094,0.0,,6.5559,0.58702
0.14997,118186.49,3.9147,1.8119,,0.0,6.5657,0.58709
0.14997,118246.487,3.9156,1.8144,0.0,,6.5755,0.58722
0.14998,118306.488,3.9164,1.8169,0.30776,0.0,6.5852,0.58738
0.14997,118366.487,3.917,1.8194,,3.3696,6.595,0.58743
0.14998,118426.488,3.9177,1.8219,0.0,,6.6048,0.58758
0.14998,118486.487,3.9183,1.8244,,0.0,6.6146,0.58767
0.14997,118546.488,3.9192,1.8269,0.0,,6.6244,0.58776
0.14998,118606.489,3.9199,1.8294,,0.0,6.6342,0.58791
0.14999,118666.488,3.9205,1.8319,0.0,,6.644,0.58804
0.14998,118726.488,3.9211,1.8344,,0.0,6.6538,0.58809
0.14997,118786.488,3.9218,1.8369,0.0,3.5752,6.6636,0.58815
0.14998,118846.488,3.9226,1.8394,,,6.6734,0.58831
0.14998,118906.486,3.9233,1.8419,0.0,0.0,6.6832,0.58842
0.14997,118966.488,3.924,1.8444,,,6.693,0.58848
0.14998,119026.487,3.9244,1.8469,0.0,0.0,6.7028,0.58858
0.14997,119086.488,3.9251,1.8494,,,6.7126,0.58865
0.14998,119146.488,3.9258,1.8519,0.0,0.0,6.7224,0.58879
0.14997,119206.487,3.9267,1.8544,0.27412,,6.7323,0.58889
0.14998,119266.488,3.9273,1.8569,,3.729,6.7421,0.58902
0.14997,119326.486,3.928,1.8594,0.0,,6.7519,0.58908
0.14997,119386.487,3.9284,1.8619,,0.0,6.7617,0.58914
0.14998,119446.487,3.9291,1.8644,0.0,,6.7715,0.58929
0.14998,119506.487,3.9297,1.8669,,0.0,6.7813,0.58938
0.14998,119566.487,3.9305,1.8694,0.0,,6.7912,0.5895
0.14997,119626.488,3.9312,1.8719,,0.0,6.801,0.58956
0.14998,119686.488,3.9319,1.8744,0.0,3.8085,6.8108,0.58971
0.14998,119746.487,3.9324,1.8769,,,6.8206,0.58978
0.14997,119806.487,3.933,1.8794,0.0,0.0,6.8305,0.58983
0.14998,119866.488,3.9337,1.8819,,,6.8403,0.58998
0.14997,119926.487,3.9345,1.8844,0.0,0.0,6.8501,0.59006
0.14997,119986.487,3.9352,1.8869,,,6.86,0.59016
0.14998,120046.488,3.9357,1.8894,0.0,0.0,6.8698,0.59028
0.14998,120106.487,3.9363,1.8919,0.26499,,6.8796,0.59037
0.14997,120166.488,3.9371,1.8944,,3.7659,6.8895,0.59045
0.14998,120226.487,3.9379,1.8969,0.0,,6.8993,0.59061
0.14997,120286.487,3.9386,1.8994,,0.0,6.9092,0.59067
0.14998,120346.488,3.9391,1.9019,0.0,,6.919,0.59079
0.14998,120406.488,3.9398,1.9044,,0.0,6.9289,0.59089
0.14997,120466.488,3.9405,1.9069,0.0,,6.9387,0.59096
0.14998,120526.488,3.9414,1.9094,,0.0,6.9486,0.59113
0.14998,120586.486,3.942,1.9119,0.0,3.6277,6.9584,0.59122
0.14998,120646.489,3.9427,1.9144,,,6.9683,0.59133
0.14997,120706.486,3.9433,1.9169,0.0,0.0,6.9781,0.59138
0.14998,120766.489,3.944,1.9194,,,6.988,0.59152
0.14998,120826.487,3.9449,1.9219,0.0,0.0,6.9978,0.59166
0.14997,120886.488,3.9457,1.9244,,,7.0077,0.59174
0.14998,120946.487,3.9463,1.9269,0.27912,0.0,7.0175,0.59187
0.14998,121006.488,3.9469,1.9294,,3.4983,7.0274,0.59196
0.14997,121066.487,3.9476,1.9319,0.0,,7.0373,0.59202
0.14998,121126.488,3.9485,1.9344,,0.0,7.0471,0.5922
0.14999,121186.488,3.9493,1.9369,0.0,,7.057,0.59236
0.14997,121246.487,3.95,1.9394,,0.0,7.0669,0.59238
0.14998,121306.488,3.9507,1.9419,0.0,,7.0768,0.59253
0.14997,121366.486,3.9514,1.9444,,0.0,7.0866,0.59259
0.14997,121426.488,3.9522,1.9469,0.0,3.3125,7.0965,0.59271
0.14997,121486.488,3.9532,1.9494,,,7.1064,0.59286
0.14997,121546.487,3.9539,1.9519,0.0,0.0,7.1163,0.59297
0.14998,121606.487,3.9546,1.9544,,,7.1262,0.59311
0.14998,121666.488,3.9553,1.9569,0.0,0.0,7.136,0.59322
0.14997,121726.487,3.9561,1.9594,0.30521,,7.1459,0.5933
0.14997,121786.487,3.9571,1.9619,,3.1835,7.1558,0.59345
0.14997,121846.488,3.9579,1.9644,0.0,,7.1657,0.59357
0.14998,121906.488,3.9586,1.9669,,0.0,7.1756,0.59371
0.14997,121966.489,3.9594,1.9694,0.0,,7.1855,0.59379
0.14998,122026.487,3.9603,1.9719,,0.0,7.1954,0.59397
0.14998,122086.489,3.9612,1.9744,0.0,,7.2053,0.5941
0.14998,122146.488,3.962,1.9769,,3.0499,7.2152,0.59422
0.14997,122206.488,3.9627,1.9794,0.0,,7.2251,0.59429
0.14998,122266.487,3.9635,1.9819,,0.0,7.235,0.59445
0.14998,122326.487,3.9646,1.9844,0.0,,7.2449,0.59461
0.14998,122386.487,3.9655,1.9869,,0.0,7.2548,0.59475
0.14998,122446.487,3.9662,1.9894,0.33417,,7.2647,0.59485
0.14998,122506.487,3.967,1.9919,,2.9201,7.2746,0.59497
0.14997,122566.488,3.9679,1.9944,0.0,,7.2846,0.59507
0.14998,122626.487,3.969,1.9969,,0.0,7.2945,0.59527
0.14997,122686.487,3.9699,1.9994,0.0,,7.3044,0.59537
0.14997,122746.486,3.9707,2.0019,,0.0,7.3143,0.59549
0.14998,122806.488,3.9715,2.0044,0.0,,7.3242,0.59565
0.14998,122866.489,3.9724,2.0069,,2.8055,7.3342,0.59578
0.14997,122926.487,3.9735,2.0094,0.0,,7.3441,0.59591
0.14998,122986.488,3.9744,2.0119,,0.0,7.354,0.59608
0.14998,123046.487,3.9753,2.0144,0.0,,7.364,0.59622
0.14998,123106.488,3.9761,2.0169,0.36239,0.0,7.3739,0.59634
0.14998,123166.488,3.977,2.0194,,2.7037,7.3838,0.59647
0.14997,123226.487,3.9782,2.0219,0.0,,7.3938,0.59661
0.14998,123286.488,3.9791,2.0244,,0.0,7.4037,0.59679
0.14998,123346.487,3.98,2.0269,0.0,,7.4137,0.59692
0.14997,123406.489,3.9808,2.0294,,0.0,7.4236,0.597
0.14998,123466.487,3.9819,2.0319,0.0,2.6075,7.4336,0.59721
0.14997,123526.487,3.983,2.0344,,,7.4435,0.59733
0.14998,123586.487,3.984,2.0369,0.0,0.0,7.4535,0.59752
0.14997,123646.488,3.9848,2.0394,,,7.4634,0.5976
0.14997,123706.488,3.9858,2.0419,0.0,0.0,7.4734,0.59775
0.14997,123766.488,3.9869,2.0444,0.38792,2.5208,7.4834,0.59792
0.14997,123826.489,3.988,2.0469,,,7.4933,0.59808
0.14998,123886.487,3.989,2.0494,0.0,0.0,7.5033,0.59827
0.14998,123946.488,3.9898,2.0519,,,7.5133,0.59839
0.14998,124006.489,3.9909,2.0544,0.0,0.0,7.5232,0.59856
0.14998,124066.487,3.9921,2.0569,,2.4466,7.5332,0.59874
0.14998,124126.488,3.9931,2.0594,0.0,,7.5432,0.59889
0.14997,124186.487,3.9941,2.0618,,0.0,7.5532,0.599
0.14998,124246.487,3.995,2.0643,0.0,,7.5632,0.59917
0.14997,124306.486,3.9961,2.0668,0.41103,0.0,7.5731,0.5993
0.14997,124366.486,3.9973,2.0693,,2.4085,7.5831,0.59948
0.14999,124426.489,3.9984,2.0718,0.0,,7.5931,0.59972
0.14997,124486.487,3.9994,2.0743,,0.0,7.6031,0.59979
0.14997,124546.486,4.0004,2.0768,0.0,,7.6131,0.59994
0.14998,124606.488,4.0014,2.0793,,0.0,7.6231,0.60013
0.14998,124666.488,4.0026,2.0818,0.0,2.3528,7.6331,0.60031
0.14998,124726.487,4.0038,2.0843,,,7.6431,0.60049
0.14997,124786.489,4.0048,2.0868,0.0,0.0,7.6531,0.6006
0.14999,124846.488,4.0057,2.0893,,,7.6631,0.60081
0.14997,124906.488,4.0067,2.0918,0.42678,2.328,7.6731,0.60088
0.14998,124966.488,4.0078,2.0943,,,7.6832,0.60109
0.14998,125026.486,4.0091,2.0968,0.0,0.0,7.6932,0.60128
0.14998,125086.487,4.0102,2.0993,,,7.7032,0.60145
0.14998,125146.486,4.0111,2.1018,0.0,0.0,7.7132,0.60158
0.14998,125206.488,4.0122,2.1043,,2.2969,7.7233,0.60175
0.14997,125266.487,4.0134,2.1068,0.0,,7.7333,0.60189
0.14998,125326.487,4.0146,2.1093,,0.0,7.7433,0.60211
0.14997,125386.487,4.0156,2.1118,0.0,,7.7533,0.60222
0.14997,125446.486,4.0165,2.1143,0.43547,0.0,7.7634,0.60235
0.14998,125506.488,4.0176,2.1168,,2.2863,7.7734,0.60256
0.14996,125566.487,4.0188,2.1193,0.0,,7.7835,0.60266
0.14997,125626.488,4.0199,2.1218,,0.0,7.7935,0.60286
0.14997,125686.488,4.0211,2.1243,0.0,,7.8036,0.60304
0.14997,125746.487,4.0222,2.1268,,2.285,7.8136,0.60321
0.14998,125806.486,4.0231,2.1293,0.0,,7.8237,0.60338
0.14998,125866.487,4.0243,2.1318,,0.0,7.8337,0.60356
0.14998,125926.489,4.0253,2.1343,0.0,,7.8438,0.60371
0.14998,125986.488,4.0265,2.1368,0.43702,0.0,7.8538,0.60389
0.14997,126046.488,4.0276,2.1393,,2.3018,7.8639,0.60402
0.14998,126106.487,4.0286,2.1418,0.0,,7.874,0.60421
0.14997,126166.487,4.0296,2.1443,,0.0,7.884,0.60432
0.14997,126226.488,4.0307,2.1468,0.0,,7.8941,0.60448
0.14997,126286.487,4.0318,2.1493,,2.3154,7.9042,0.60465
0.14997,126346.488,4.033,2.1518,0.0,,7.9143,0.60483
0.14998,126406.489,4.0341,2.1543,,0.0,7.9244,0.60503
0.14997,126466.488,4.035,2.1568,0.0,,7.9344,0.60513
0.14998,126526.489,4.0361,2.1593,0.42892,0.0,7.9445,0.60533
0.14997,126586.487,4.0372,2.1618,,2.347,7.9546,0.60546
0.14998,126646.487,4.0383,2.1643,0.0,,7.9647,0.60566
0.14998,126706.488,4.0393,2.1668,,0.0,7.9748,0.60581
0.14998,126766.487,4.0402,2.1693,,,7.9849,0.60595
0.14998,126826.487,4.0412,2.1718,0.0,0.0,7.995,0.6061
0.14999,126886.487,4.0423,2.1743,,2.402,8.0051,0.6063
0.14998,126946.487,4.0435,2.1768,0.0,,8.0152,0.60644
0.14998,127006.487,4.0445,2.1793,,0.0,8.0253,0.60659
0.14998,127066.487,4.0453,2.1818,0.0,,8.0354,0.60671
0.14998,127126.488,4.0464,2.1843,0.4143,0.0,8.0455,0.60688
0.14998,127186.487,4.0476,2.1868,,2.4265,8.0556,0.60706
0.14998,127246.488,4.0485,2.1893,0.0,,8.0658,0.60719
0.14997,127306.487,4.0494,2.1918,,0.0,8.0759,0.60729
0.14998,127366.488,4.0503,2.1943,0.0,,8.086,0.60746
0.14998,127426.489,4.0514,2.1968,,0.0,8.0961,0.60763
0.14998,127486.487,4.0525,2.1993,0.0,2.5234,8.1063,0.60779
0.14998,127546.487,4.0535,2.2018,,,8.1164,0.60794
0.14998,127606.487,4.0543,2.2043,0.0,0.0,8.1265,0.60806
0.14998,127666.487,4.0552,2.2068,,,8.1366,0.6082
0.14998,127726.488,4.0562,2.2093,0.3933,0.0,8.1468,0.60835
0.14999,127786.487,4.0573,2.2118,,2.593,8.1569,0.60855
0.14999,127846.489,4.0582,2.2143,0.0,,8.1671,0.60869
0.14998,127906.486,4.059,2.2168,,0.0,8.1772,0.60877
0.14999,127966.487,4.06,2.2193,0.0,,8.1874,0.60896
0.14997,128026.487,4.061,2.2218,,0.0,8.1975,0.60903
0.14999,128086.489,4.0619,2.2243,0.0,2.6789,8.2077,0.60924
0.14998,128146.488,4.0627,2.2268,,,8.2178,0.60932
0.14998,128206.487,4.0636,2.2293,0.0,0.0,8.228,0.60946
0.14998,128266.487,4.0645,2.2318,,,8.2381,0.60959
0.14998,128326.487,4.0656,2.2343,0.0,0.0,8.2483,0.60976
0.14998,128386.488,4.0664,2.2368,0.36711,,8.2584,0.60988
0.14998,128446.489,4.0671,2.2393,,2.7959,8.2686,0.60998
0.14998,128506.487,4.068,2.2418,0.0,,8.2788,0.61012
0.14997,128566.489,4.0688,2.2443,,0.0,8.2889,0.6102
0.14997,128626.487,4.0698,2.2468,0.0,,8.2991,0.61035
0.14997,128686.488,4.0706,2.2493,,0.0,8.3093,0.61047
0.14998,128746.487,4.0712,2.2518,0.0,,8.3195,0.6106
0.14998,128806.489,4.072,2.2543,,3.0388,8.3296,0.61072
0.14998,128866.489,4.0728,2.2568,0.0,,8.3398,0.61084
0.14998,128926.487,4.0737,2.2593,,0.0,8.35,0.61097
0.14998,128986.487,4.0744,2.2618,0.0,,8.3602,0.61108
0.14997,129046.489,4.0752,2.2643,,0.0,8.3704,0.61116
0.14998,129106.488,4.0757,2.2668,0.0,,8.3805,0.61127
0.14998,129166.488,4.0763,2.2693,0.31276,0.0,8.3907,0.61136
0.14997,129226.487,4.0771,2.2718,,3.446,8.4009,0.61144
0.14998,129286.487,4.0778,2.2743,0.0,,8.4111,0.61159
0.14998,129346.489,4.0784,2.2768,,0.0,8.4213,0.61168
0.14998,129406.487,4.0789,2.2793,0.0,,8.4315,0.61175
0.14998,129466.487,4.0793,2.2818,,0.0,8.4417,0.61181
0.14997,129526.488,4.08,2.2843,0.0,,8.4519,0.61188
0.14997,129586.487,4.0806,2.2868,,0.0,8.4621,0.61197
0.14997,129646.486,4.081,2.2893,0.0,,8.4723,0.61203
0.14998,129706.487,4.0813,2.2918,,0.0,8.4825,0.61211
0.14999,129766.488,4.0817,2.2943,0.0,4.6471,8.4927,0.61221
0.14997,129826.487,4.0822,2.2968,,,8.5029,0.61221
0.14997,129886.489,4.0827,2.2993,0.0,0.0,8.5131,0.61228
0.14998,129946.488,4.0831,2.3018,,,8.5233,0.61238
0.14998,130006.487,4.0832,2.3043,0.0,0.0,8.5335,0.6124
0.14998,130066.486,4.0837,2.3068,,,8.5437,0.61247
0.14998,130126.486,4.084,2.3093,0.0,0.0,8.5539,0.61252
0.14998,130186.487,4.0845,2.3118,,,8.5641,0.61259
0.14997,130246.487,4.0848,2.3143,0.0,0.0,8.5743,0.6126
0.14997,130306.487,4.0849,2.3168,,,8.5845,0.61261
0.14998,130366.487,4.0852,2.3193,0.0,0.0,8.5947,0.6127
0.14997,130426.487,4.0856,2.3218,,,8.605,0.61272
0.14998,130486.489,4.0859,2.3243,0.0,0.0,8.6152,0.6128
0.14998,130546.487,4.0862,2.3268,,,8.6254,0.61285
0.14997,130606.489,4.0865,2.3293,0.17038,0.0,8.6356,0.61285
0.14997,130666.488,4.0866,2.3318,,,8.6458,0.61287
0.14998,130726.487,4.0868,2.3343,0.0,7.6583,8.656,0.61294
0.14998,130786.487,4.0872,2.3368,,,8.6662,0.613
0.14997,130846.487,4.0876,2.3393,0.0,0.0,8.6764,0.61302
0.14998,130906.487,4.0878,2.3418,,,8.6867,0.61309
0.14997,130966.487,4.0881,2.3443,0.0,0.0,8.6969,0.61309