File: Data/monotonic_segments/Cycle 295_charge.csv
Current(A),Test_Time(s),Voltage(V),Charge_Capacity(Ah),dV/dQ(V/Ah),dQ/dV(Ah/V),Charge_Energy(Wh),Power(W)
0.14996,1129.154,4.1999,0.03634,0.0,0.0,0.15262,0.62982
0.14999,79181.452,3.1042,0.0375,4.3309,0.23283,0.1125,0.4656
0.14999,79301.451,3.1242,0.0425,4.0199,0.25043,0.12807,0.4686
0.15,79421.451,3.1431,0.0475,3.7377,0.27107,0.14374,0.47147
0.15,79541.452,3.1605,0.0525,,0.28746,0.1595,0.47408
0.14999,79661.451,3.1769,0.0575,3.3137,0.3105,0.17534,0.4765
0.14998,79781.452,3.1925,0.0625,3.0891,0.32705,0.19126,0.47881
0.14998,79901.451,3.2069,0.0675,2.9611,0.34588,0.20726,0.48097
0.15,80021.452,3.2209,0.0725,2.7398,0.36084,0.22333,0.48314
0.14999,80141.452,3.234,0.0775,2.6523,0.381,0.23947,0.48507
0.15,80261.452,3.2464,0.0825,2.5453,0.40491,0.25567,0.48696
0.14999,80381.453,3.2585,0.0875,,0.42308,0.27193,0.48874
0.14999,80501.454,3.2698,0.0925,,0.43415,0.28825,0.49044
0.14999,80621.451,3.2809,0.0975,,0.4514,0.30462,0.4921
0.14998,80741.451,3.2912,0.1025,2.0949,0.4747,0.32105,0.49361
0.14999,80861.453,3.3013,0.10749,2.0187,0.49257,0.33753,0.49516
0.14999,80981.454,3.311,0.11249,1.9256,0.51629,0.35406,0.49662
0.14999,81101.451,3.32,0.11749,0.0,0.53805,0.37064,0.49797
0.14999,81221.452,3.3291,0.12249,,0.56264,0.38726,0.49933
0.14999,81341.452,3.3374,0.12749,,0.59454,0.40393,0.50058
0.14999,81461.453,3.3455,0.13249,,,0.42063,0.50179
0.14999,81581.452,3.3532,0.13749,1.5645,0.65189,0.43738,0.50295
0.14998,81701.452,3.3601,0.14249,0.0,,0.45416,0.50395
0.14999,81821.451,3.3666,0.14749,,,0.47098,0.50496
0.15,81941.454,3.3719,0.15249,1.1726,0.93236,0.48782,0.50579
0.14999,82061.451,3.3762,0.15749,0.0,0.0,0.50469,0.5064
0.14998,82181.453,3.3802,0.16249,0.0,,0.52158,0.50696
0.15,82301.453,3.3832,0.16749,,,0.53849,0.50748
0.14999,82421.451,3.3862,0.17249,,,0.55541,0.5079
0.14999,82541.453,3.3887,0.17749,,,0.57235,0.50827
0.14998,82661.452,3.3908,0.18249,0.53443,,0.5893,0.50855
0.14999,82781.452,3.3931,0.18749,0.0,,0.60626,0.50893
0.14999,82901.453,3.3949,0.19249,0.0,,0.62323,0.5092
0.14999,83021.451,3.397,0.19749,0.0,2.5161,0.6402,0.50952
0.14999,83141.453,3.3987,0.20249,0.0,0.0,0.65719,0.50977
0.14998,83261.454,3.4004,0.20749,0.0,0.0,0.67419,0.50999
0.15,83381.453,3.4022,0.21249,,2.8427,0.69119,0.51033
0.14999,83501.451,3.4037,0.21749,,0.0,0.70821,0.51052
0.14999,83621.454,3.4054,0.22249,,0.0,0.72523,0.51078
0.14998,83741.451,3.4068,0.22749,,3.1847,0.74226,0.51095
0.14999,83861.452,3.4082,0.23249,,0.0,0.75929,0.5112
0.14999,83981.452,3.4099,0.23749,,0.0,0.77634,0.51145
0.14999,84101.452,3.4112,0.24249,0.30805,0.0,0.79339,0.51165
0.14998,84221.452,3.4127,0.24748,0.0,,0.81045,0.51184
0.14998,84341.451,3.4141,0.25248,0.0,,0.82751,0.51205
0.14998,84461.451,3.4153,0.25748,0.0,,0.84458,0.51223
0.14999,84581.451,3.4169,0.26248,0.0,3.6539,0.86166,0.5125
0.14999,84701.452,3.4181,0.26748,0.0,0.0,0.87875,0.51268
0.15,84821.453,3.4194,0.27248,0.0,0.0,0.89584,0.51291
0.14999,84941.452,3.4208,0.27748,0.0,0.0,0.91294,0.51309
0.14999,85061.452,3.4219,0.28248,,3.8185,0.93005,0.51325
0.14998,85181.452,3.4233,0.28748,,0.0,0.94716,0.51343
0.14998,85301.453,3.4245,0.29248,,0.0,0.96428,0.51361
0.14998,85421.453,3.4258,0.29748,,0.0,0.9814,0.5138
0.14999,85541.452,3.4272,0.30248,,3.9115,0.99853,0.51405
0.14998,85661.452,3.4283,0.30748,,0.0,1.0157,0.51418
0.14999,85781.452,3.4297,0.31248,,0.0,1.0328,0.51442
0.14999,85901.452,3.4308,0.31748,0.25375,0.0,1.05,0.51459
0.14998,86021.453,3.4321,0.32248,0.0,3.9635,1.0671,0.51475
0.14998,86141.453,3.4335,0.32748,0.0,0.0,1.0843,0.51496
0.14998,86261.452,3.4346,0.33248,0.0,0.0,1.1014,0.51512
0.14998,86381.453,3.4361,0.33748,0.0,0.0,1.1186,0.51535
0.14998,86501.452,3.4372,0.34248,0.0,3.8869,1.1358,0.51551
0.14998,86621.452,3.4386,0.34748,0.0,0.0,1.153,0.51572
0.14998,86741.454,3.44,0.35248,,0.0,1.1702,0.51593
0.14998,86861.451,3.4412,0.35748,0.26025,0.0,1.1874,0.51611
0.14999,86981.451,3.4428,0.36248,0.0,,1.2046,0.51639
0.14998,87101.453,3.444,0.36747,0.0,,1.2218,0.51653
0.14999,87221.451,3.4454,0.37247,0.0,,1.239,0.51678
0.14999,87341.453,3.447,0.37747,0.0,3.5269,1.2563,0.51702
0.14999,87461.451,3.4484,0.38247,0.0,0.0,1.2735,0.51723
0.14999,87581.451,3.4501,0.38747,0.0,0.0,1.2907,0.51748
0.15,87701.453,3.4514,0.39247,0.28923,0.0,1.308,0.51771
0.14999,87821.452,3.4531,0.39747,0.0,,1.3253,0.51793
0.14998,87941.452,3.4548,0.40247,0.0,,1.3425,0.51815
0.14997,88061.452,3.4562,0.40747,0.0,,1.3598,0.51833
0.14998,88181.452,3.4579,0.41247,0.0,,1.3771,0.51862
0.14999,88301.451,3.4598,0.41747,0.0,,1.3944,0.51894
0.14999,88421.454,3.4614,0.42247,0.32935,,1.4117,0.51918
0.14997,88541.452,3.4633,0.42747,0.0,,1.429,0.51939
0.15,88661.451,3.4652,0.43247,0.0,,1.4463,0.51978
0.14999,88781.451,3.4668,0.43747,0.0,2.7318,1.4636,0.51999
0.14999,88901.452,3.4689,0.44247,0.0,0.0,1.481,0.5203
0.14999,89021.451,3.4707,0.44747,0.0,0.0,1.4983,0.52057
0.14999,89141.453,3.4728,0.45247,,,1.5157,0.52089
0.14999,89261.451,3.4747,0.45747,,,1.5331,0.52117
0.14998,89381.451,3.4766,0.46247,,,1.5504,0.52142
0.14998,89501.451,3.4787,0.46747,,,1.5678,0.52174
0.14997,89621.451,3.4806,0.47247,,,1.5852,0.52199
0.14998,89741.452,3.4827,0.47746,,2.4934,1.6026,0.52234
0.14998,89861.451,3.4846,0.48246,,0.0,1.62,0.52262
0.14999,89981.452,3.4867,0.48746,,0.0,1.6375,0.52297
0.14999,90101.452,3.4889,0.49246,,,1.6549,0.5233
0.14999,90221.452,3.4907,0.49746,,,1.6723,0.52357
0.14998,90341.453,3.4929,0.50246,,,1.6898,0.52387
0.14999,90461.453,3.4948,0.50746,,,1.7073,0.52419
0.15,90581.453,3.4969,0.51246,,2.4533,1.7247,0.52454
0.15,90701.452,3.499,0.51746,,0.0,1.7422,0.52485
0.14998,90821.451,3.5009,0.52246,0.40759,0.0,1.7597,0.52506
0.14998,90941.452,3.5031,0.52746,0.0,,1.7772,0.52539
0.14999,91061.451,3.5049,0.53246,0.0,,1.7948,0.5257
0.14999,91181.452,3.5072,0.53746,0.0,2.4904,1.8123,0.52604
0.14999,91301.452,3.509,0.54246,0.0,0.0,1.8298,0.52631
0.14999,91421.451,3.511,0.54746,0.40188,0.0,1.8474,0.52661
0.14998,91541.451,3.5131,0.55246,0.0,,1.8649,0.52689
0.14999,91661.454,3.515,0.55746,0.0,,1.8825,0.52721
0.14999,91781.452,3.5171,0.56246,0.0,2.5054,1.9001,0.52753
0.14999,91901.452,3.519,0.56746,0.0,0.0,1.9177,0.52781
0.14998,92021.452,3.5211,0.57246,0.40116,0.0,1.9353,0.52809
0.14998,92141.452,3.523,0.57746,0.0,,1.9529,0.52838
0.15,92261.451,3.5249,0.58246,0.0,,1.9705,0.52874
0.14999,92381.453,3.5271,0.58745,0.0,2.5303,1.9881,0.52903
0.14999,92501.452,3.5289,0.59245,0.0,0.0,2.0058,0.5293
0.14999,92621.452,3.531,0.59745,0.39317,0.0,2.0234,0.52961
0.14999,92741.452,3.5329,0.60245,0.0,,2.0411,0.5299
0.14999,92861.452,3.5347,0.60745,0.0,,2.0587,0.53017
0.14998,92981.452,3.5367,0.61245,,,2.0764,0.53043
0.14998,93101.452,3.5385,0.61745,,,2.0941,0.5307
0.14999,93221.453,3.5405,0.62245,,,2.1118,0.53104
0.15,93341.451,3.5422,0.62745,,2.6631,2.1295,0.53133
0.14999,93461.451,3.544,0.63245,,0.0,2.1472,0.53156
0.14998,93581.451,3.546,0.63745,,0.0,2.1649,0.53183
0.14998,93701.451,3.5478,0.64245,,,2.1827,0.5321
0.14998,93821.452,3.5497,0.64745,,,2.2004,0.53238
0.14998,93941.453,3.5516,0.65245,0.36954,,2.2182,0.53267
0.14999,94061.452,3.5532,0.65745,0.0,,2.2359,0.53294
0.14998,94181.454,3.5552,0.66245,0.0,,2.2537,0.53321
0.14999,94301.451,3.5569,0.66745,0.0,2.7547,2.2715,0.5335
0.14999,94421.451,3.5588,0.67245,0.0,0.0,2.2893,0.53378
0.15,94541.452,3.5606,0.67745,0.0,0.0,2.3071,0.53409
0.14999,94661.452,3.5622,0.68245,,2.7952,2.3249,0.53429
0.14999,94781.451,3.5641,0.68745,,0.0,2.3427,0.53458
0.14999,94901.453,3.5657,0.69245,,0.0,2.3605,0.53482
0.14998,95021.451,3.5674,0.69744,,2.9067,2.3783,0.53504
0.14999,95141.452,3.5692,0.70244,,0.0,2.3962,0.53534
0.14998,95261.452,3.5706,0.70744,,0.0,2.414,0.53552
0.14999,95381.453,3.5724,0.71244,,3.0506,2.4319,0.53582
0.14999,95501.451,3.5738,0.71744,,0.0,2.4497,0.53603
0.14999,95621.451,3.5753,0.72244,,0.0,2.4676,0.53626
0.14998,95741.453,3.577,0.72744,,3.2889,2.4855,0.53648
0.14998,95861.452,3.5782,0.73244,,0.0,2.5034,0.53666
0.14999,95981.453,3.5798,0.73744,,0.0,2.5213,0.53693
0.14998,96101.452,3.5811,0.74244,0.29794,0.0,2.5392,0.53709
0.14999,96221.451,3.5824,0.74744,0.0,,2.5571,0.53732
0.14998,96341.452,3.5839,0.75244,0.0,,2.575,0.53751
0.14998,96461.451,3.5851,0.75744,0.0,0.0,2.5929,0.53769
0.14998,96581.452,3.5865,0.76244,0.0,0.0,2.6108,0.5379
0.14998,96701.452,3.5877,0.76744,0.0,,2.6288,0.53808
0.14998,96821.453,3.5889,0.77244,0.0,,2.6467,0.53826
0.14999,96941.452,3.5903,0.77744,0.0,,2.6647,0.53851
0.14999,97061.452,3.5914,0.78244,0.26033,,2.6826,0.53867
0.14999,97181.451,3.5928,0.78744,0.0,,2.7006,0.53888
0.14999,97301.452,3.594,0.79244,0.0,,2.7185,0.53906
0.14999,97421.453,3.5951,0.79744,0.0,,2.7365,0.53923
0.15,97541.453,3.5965,0.80244,0.0,,2.7545,0.53948
0.14998,97661.451,3.5975,0.80744,0.0,,2.7725,0.53955
0.15,97781.451,3.5988,0.81243,0.0,,2.7905,0.53982
0.14999,97901.453,3.6001,0.81743,0.0,,2.8085,0.53998
0.14998,98021.451,3.6011,0.82243,0.24348,,2.8265,0.54009
0.14998,98141.452,3.6025,0.82743,0.0,4.1879,2.8445,0.5403
0.14999,98261.451,3.6034,0.83243,0.0,0.0,2.8625,0.54047
0.14998,98381.453,3.6048,0.83743,0.0,0.0,2.8805,0.54065
0.14999,98501.452,3.6058,0.84243,0.0,0.0,2.8985,0.54083
0.14999,98621.452,3.6069,0.84743,0.0,4.3212,2.9166,0.541
0.14999,98741.451,3.6082,0.85243,0.0,0.0,2.9346,0.54119
0.14999,98861.452,3.6091,0.85743,0.0,0.0,2.9526,0.54133
0.14999,98981.452,3.6105,0.86243,0.0,0.0,2.9707,0.54154
0.14998,99101.452,3.6114,0.86743,,0.0,2.9887,0.54164
0.14998,99221.452,3.6126,0.87243,,,3.0068,0.54182
0.14999,99341.452,3.6137,0.87743,,,3.0249,0.54202
0.14998,99461.453,3.6147,0.88243,,,3.0429,0.54213
0.14999,99581.452,3.6159,0.88743,,,3.061,0.54235
0.15,99701.452,3.6168,0.89243,0.0,4.6488,3.0791,0.54252
0.14999,99821.452,3.618,0.89743,0.0,0.0,3.0972,0.54266
0.14999,99941.451,3.6189,0.90243,0.0,,3.1153,0.5428
0.14999,100061.453,3.62,0.90743,0.0,,3.1334,0.54296
0.14999,100181.451,3.6211,0.91243,0.21387,,3.1515,0.54313
0.14999,100301.454,3.622,0.91743,0.0,4.7548,3.1696,0.54326
0.14999,100421.451,3.6232,0.92243,0.0,0.0,3.1877,0.54344
0.15,100541.452,3.6241,0.92743,0.0,0.0,3.2058,0.54362
0.14999,100661.452,3.6252,0.93243,0.0,0.0,3.2239,0.54374
0.14998,100781.452,3.6264,0.93743,0.0,0.0,3.242,0.54389
0.14999,100901.453,3.6272,0.94243,0.0,4.834,3.2602,0.54404
0.14998,101021.453,3.6284,0.94742,0.0,0.0,3.2783,0.54419
0.14999,101141.451,3.6292,0.95242,0.0,0.0,3.2965,0.54434
0.14999,101261.451,3.6304,0.95742,0.0,0.0,3.3146,0.54452
0.14999,101381.453,3.6315,0.96242,0.20641,0.0,3.3328,0.54469
0.15,101501.452,3.6323,0.96742,0.0,,3.3509,0.54485
0.14998,101621.452,3.6336,0.97242,0.0,,3.3691,0.54497
0.15,101741.452,3.6346,0.97742,0.0,,3.3872,0.54519
0.14999,101861.452,3.6354,0.98242,0.0,,3.4054,0.54527
0.14999,101981.451,3.6366,0.98742,0.0,,3.4236,0.54545
0.14999,102101.451,3.6375,0.99242,0.0,,3.4418,0.54559
0.14998,102221.451,3.6385,0.99742,0.0,,3.46,0.5457
0.14999,102341.452,3.6397,1.0024,0.0,,3.4782,0.54592
0.14999,102461.452,3.6406,1.0074,0.0,,3.4964,0.54605
0.14999,102581.453,3.6417,1.0124,,,3.5146,0.54622
0.14999,102701.453,3.6426,1.0174,,,3.5328,0.54635
0.15,102821.451,3.6437,1.0224,,,3.551,0.54656
0.14999,102941.453,3.6448,1.0274,,,3.5692,0.54668
0.14999,103061.452,3.6457,1.0324,,,3.5874,0.54682
0.14999,103181.452,3.6469,1.0374,,,3.6057,0.547
0.15,103301.452,3.6478,1.0424,,,3.6239,0.54717
0.14999,103421.452,3.649,1.0474,,,3.6421,0.54731
0.15,103541.453,3.6498,1.0524,,,3.6604,0.54747
0.14999,103661.454,3.6509,1.0574,0.20729,,3.6786,0.5476
0.14998,103781.452,3.6521,1.0624,0.0,4.7694,3.6969,0.54774
0.14999,103901.453,3.653,1.0674,0.0,0.0,3.7152,0.54791
0.14998,104021.452,3.6542,1.0724,0.0,0.0,3.7334,0.54806
0.14999,104141.453,3.6553,1.0774,0.0,0.0,3.7517,0.54826
0.14999,104261.452,3.6562,1.0824,0.0,0.0,3.77,0.54839
0.14999,104381.451,3.6574,1.0874,0.0,4.6974,3.7883,0.54857
0.14999,104501.452,3.6584,1.0924,0.0,0.0,3.8065,0.54872
0.14999,104621.452,3.6595,1.0974,0.0,0.0,3.8248,0.54889
0.14999,104741.451,3.6607,1.1024,,0.0,3.8431,0.54907
0.14999,104861.453,3.6617,1.1074,,0.0,3.8614,0.54922
0.14999,104981.453,3.6629,1.1124,,,3.8797,0.5494
0.14998,105101.452,3.6639,1.1174,,,3.8981,0.54951
0.14999,105221.452,3.665,1.1224,,,3.9164,0.54971
0.14999,105341.453,3.6662,1.1274,,,3.9347,0.54989
0.14998,105461.452,3.6673,1.1324,,4.4881,3.953,0.55002
0.14999,105581.451,3.6686,1.1374,,0.0,3.9714,0.55025
0.14999,105701.454,3.6695,1.1424,,0.0,3.9897,0.55039
0.14999,105821.451,3.6708,1.1474,,0.0,4.0081,0.55058
0.14999,105941.453,3.6719,1.1524,,0.0,4.0264,0.55075
0.14999,106061.451,3.673,1.1574,,,4.0448,0.55091
0.14999,106181.453,3.6743,1.1624,,,4.0632,0.55111
0.15,106301.452,3.6754,1.1674,,,4.0815,0.55131
0.14998,106421.453,3.6767,1.1724,,,4.0999,0.55143
0.14998,106541.452,3.6778,1.1774,,,4.1183,0.5516
0.14999,106661.452,3.679,1.1824,,,4.1367,0.55181
0.14998,106781.451,3.6804,1.1874,,,4.1551,0.55199
0.14999,106901.451,3.6815,1.1924,0.23955,,4.1735,0.55219
0.14999,107021.454,3.6828,1.1974,0.0,,4.1919,0.55238
0.14999,107141.452,3.6839,1.2024,0.0,,4.2103,0.55255
0.14998,107261.452,3.6852,1.2074,0.0,,4.2287,0.55271
0.14998,107381.453,3.6866,1.2124,0.0,,4.2472,0.55292
0.14999,107501.452,3.6877,1.2174,0.0,,4.2656,0.55312
0.14999,107621.452,3.6892,1.2224,0.0,,4.284,0.55334
0.14999,107741.452,3.6903,1.2274,0.0,,4.3025,0.55351
0.15,107861.451,3.6918,1.2324,,,4.3209,0.55377
0.14999,107981.454,3.6932,1.2374,,,4.3394,0.55394
0.14999,108101.454,3.6944,1.2424,,,4.3579,0.55412
0.14999,108221.453,3.6958,1.2474,,,4.3763,0.55433
0.14998,108341.453,3.6973,1.2524,,3.6931,4.3948,0.55452
0.14999,108461.451,3.6984,1.2574,,0.0,4.4133,0.55472
0.14998,108581.454,3.7,1.2624,,0.0,4.4318,0.55493
0.15,108701.453,3.7014,1.2674,0.2746,0.0,4.4503,0.55521
0.15,108821.452,3.7027,1.2724,0.0,,4.4688,0.55541
0.15,108941.453,3.7044,1.2774,0.0,,4.4873,0.55566
0.14999,109061.454,3.7056,1.2824,0.0,,4.5058,0.5558
0.14998,109181.451,3.7073,1.2874,0.0,3.4491,4.5244,0.55602
0.14999,109301.452,3.7086,1.2924,0.0,0.0,4.5429,0.55625
0.14998,109421.452,3.71,1.2974,0.0,0.0,4.5615,0.55643
0.14998,109541.452,3.7117,1.3024,0.29168,0.0,4.58,0.55668
0.15,109661.452,3.7131,1.3074,0.0,,4.5986,0.55697
0.14997,109781.452,3.7148,1.3124,0.0,,4.6171,0.55711
0.14999,109901.452,3.7161,1.3174,0.0,,4.6357,0.55738
0.14999,110021.454,3.7177,1.3224,0.0,,4.6543,0.55762
0.14999,110141.452,3.7195,1.3274,0.0,,4.6729,0.55789
0.14999,110261.452,3.7208,1.3324,0.0,,4.6915,0.55808
0.14999,110381.454,3.7226,1.3374,,3.1891,4.7101,0.55835
0.14999,110501.452,3.724,1.3424,,0.0,4.7287,0.55856
0.14999,110621.452,3.7256,1.3474,,0.0,4.7473,0.5588
0.14999,110741.452,3.7274,1.3524,,3.105,4.766,0.55907
0.14999,110861.452,3.7289,1.3574,,0.0,4.7846,0.5593
0.14999,110981.454,3.7305,1.3624,,0.0,4.8033,0.55954
0.14999,111101.451,3.7323,1.3674,,3.0876,4.8219,0.55981
0.14999,111221.453,3.7337,1.3724,,0.0,4.8406,0.56002
0.14999,111341.451,3.7356,1.3774,,0.0,4.8592,0.5603
0.14999,111461.454,3.7371,1.3824,,3.0092,4.8779,0.56053
0.14999,111581.452,3.7387,1.3874,,0.0,4.8966,0.56077
0.14999,111701.452,3.7406,1.3924,,0.0,4.9153,0.56105
0.14999,111821.451,3.7421,1.3974,,2.9936,4.934,0.56128
0.14999,111941.453,3.7439,1.4024,,0.0,4.9527,0.56155
0.14999,112061.451,3.7456,1.4074,,0.0,4.9715,0.5618
0.14999,112181.452,3.7471,1.4124,,2.9743,4.9902,0.56203
0.14999,112301.452,3.749,1.4174,,0.0,5.0089,0.56231
0.14998,112421.452,3.7505,1.4224,,0.0,5.0277,0.5625
0.14999,112541.453,3.7524,1.4274,,2.967,5.0464,0.56282
0.14999,112661.453,3.7539,1.4324,,0.0,5.0652,0.56305
0.15,112781.451,3.7557,1.4374,,0.0,5.084,0.56336
0.14999,112901.451,3.7575,1.4424,,2.9443,5.1027,0.56359
0.14999,113021.452,3.759,1.4474,,0.0,5.1215,0.56381
0.15,113141.452,3.7608,1.4524,,0.0,5.1403,0.56412
0.14999,113261.452,3.7625,1.4574,,2.9418,5.1591,0.56434
0.14999,113381.452,3.7641,1.4624,,0.0,5.178,0.56458
0.14999,113501.452,3.766,1.4674,,0.0,5.1968,0.56486
0.14998,113621.452,3.7675,1.4724,,2.9575,5.2156,0.56505
0.15,113741.452,3.7693,1.4774,,0.0,5.2344,0.5654
0.14999,113861.454,3.771,1.4824,,0.0,5.2533,0.56561
0.15,113981.452,3.7726,1.4874,,2.9629,5.2722,0.56589
0.14999,114101.452,3.7744,1.4924,,0.0,5.291,0.56612
0.14999,114221.452,3.7759,1.4974,,0.0,5.3099,0.56635
0.15,114341.453,3.7777,1.5024,,2.9859,5.3288,0.56666
0.14999,114461.452,3.7792,1.5074,,0.0,5.3477,0.56684
0.14999,114581.452,3.7809,1.5124,,0.0,5.3666,0.5671
0.15,114701.453,3.7827,1.5174,,2.9868,5.3855,0.56741
0.15,114821.453,3.7842,1.5224,,0.0,5.4044,0.56763
0.14998,114941.451,3.7861,1.5274,,0.0,5.4233,0.56784
0.15,115061.452,3.7875,1.5324,,3.0262,5.4423,0.56813
0.15,115181.452,3.7893,1.5374,,0.0,5.4612,0.5684
0.14999,115301.453,3.791,1.5424,,0.0,5.4801,0.56861
0.14999,115421.452,3.7925,1.5474,,3.0084,5.4991,0.56884
0.14999,115541.453,3.7943,1.5524,,0.0,5.5181,0.56911
0.14999,115661.451,3.7958,1.5574,,0.0,5.537,0.56933
0.14999,115781.452,3.7976,1.5624,,3.0248,5.556,0.5696
0.14999,115901.452,3.7992,1.5674,,0.0,5.575,0.56984
0.14999,116021.451,3.8008,1.5724,,0.0,5.594,0.57008
0.14998,116141.453,3.8026,1.5774,,3.029,5.613,0.57031
0.14999,116261.452,3.804,1.5824,,0.0,5.632,0.57056
0.14998,116381.452,3.8059,1.5874,,0.0,5.6511,0.57081
0.14998,116501.451,3.8074,1.5924,,3.0115,5.6701,0.57103
0.14999,116621.451,3.8092,1.5974,,0.0,5.6891,0.57134
0.14999,116741.451,3.8108,1.6024,,0.0,5.7082,0.57158
0.14997,116861.451,3.8124,1.6074,,2.9996,5.7272,0.57175
0.14998,116981.453,3.8142,1.6124,,0.0,5.7463,0.57205
0.14998,117101.451,3.8158,1.6174,,0.0,5.7654,0.57229
0.14998,117221.452,3.8176,1.6224,,2.9693,5.7844,0.57256
0.14998,117341.451,3.8191,1.6274,,0.0,5.8035,0.57279
0.14998,117461.451,3.8208,1.6324,,0.0,5.8226,0.57304
0.14997,117581.452,3.8228,1.6374,,2.9012,5.8417,0.57331
0.14998,117701.452,3.8243,1.6424,,0.0,5.8609,0.57357
0.14998,117821.452,3.8263,1.6474,,0.0,5.88,0.57387
0.14999,117941.452,3.8279,1.6524,,,5.8991,0.57415
0.14998,118061.451,3.8296,1.6574,,,5.9183,0.57436
0.14999,118181.451,3.8316,1.6624,0.35051,,5.9374,0.5747
0.14999,118301.452,3.8331,1.6674,0.0,,5.9566,0.57493
0.14998,118421.452,3.8351,1.6724,0.0,,5.9757,0.57519
0.14999,118541.452,3.837,1.6774,0.0,,5.9949,0.57551
0.14998,118661.451,3.8387,1.6824,0.0,,6.0141,0.57573
0.14999,118781.451,3.8407,1.6874,0.0,,6.0333,0.57607
0.14999,118901.451,3.8425,1.6924,,2.6932,6.0525,0.57634
0.14998,119021.452,3.8442,1.6974,,0.0,6.0717,0.57655
0.14999,119141.451,3.8463,1.7024,,0.0,6.091,0.57691
0.14999,119261.451,3.848,1.7074,,,6.1102,0.57716
0.14999,119381.451,3.8501,1.7124,,,6.1294,0.57748
0.14998,119501.451,3.8519,1.7174,,,6.1487,0.57771
0.14999,119621.452,3.8538,1.7224,,,6.1679,0.57803
0.14998,119741.452,3.8559,1.7274,0.0,,6.1872,0.57831
0.14999,119861.453,3.8577,1.7324,0.0,2.5723,6.2065,0.57862
0.14999,119981.451,3.8597,1.7374,0.0,0.0,6.2258,0.57892
0.15,120101.452,3.8618,1.7424,0.39127,0.0,6.2451,0.57927
0.14999,120221.451,3.8636,1.7474,0.0,,6.2644,0.5795
0.14998,120341.451,3.8658,1.7524,0.0,,6.2837,0.57979
0.14999,120461.452,3.8677,1.7574,0.0,2.5429,6.3031,0.58012
0.14998,120581.454,3.8695,1.7624,0.0,0.0,6.3224,0.58035
0.14999,120701.452,3.8717,1.7674,0.39333,0.0,6.3418,0.58072
0.14999,120821.452,3.8735,1.7724,0.0,,6.3611,0.58099
0.14999,120941.453,3.8755,1.7774,0.0,,6.3805,0.58129
0.14999,121061.452,3.8775,1.7824,0.0,2.6088,6.3999,0.58159
0.14998,121181.454,3.8791,1.7874,0.0,0.0,6.4193,0.58179
0.14999,121301.451,3.8811,1.7924,0.0,0.0,6.4387,0.58213
0.14999,121421.452,3.8828,1.7974,,2.7355,6.4581,0.58238
0.14999,121541.453,3.8844,1.8024,,0.0,6.4775,0.58262
0.14999,121661.451,3.8863,1.8074,,0.0,6.4969,0.58291
0.14999,121781.454,3.8877,1.8124,,2.9436,6.5163,0.58312
0.14999,121901.451,3.8895,1.8174,,0.0,6.5358,0.58339
0.14998,122021.451,3.8909,1.8224,,0.0,6.5552,0.58356
0.14999,122141.451,3.8923,1.8274,,3.2367,6.5747,0.58381
0.14998,122261.452,3.8939,1.8324,,0.0,6.5942,0.58401
0.14999,122381.452,3.8951,1.8374,,0.0,6.6136,0.58423
0.14998,122501.453,3.8967,1.8424,,0.0,6.6331,0.58443
0.14998,122621.451,3.8978,1.8474,,,6.6526,0.58459
0.14998,122741.452,3.8992,1.8524,,,6.6721,0.5848
0.14999,122861.451,3.9005,1.8574,,,6.6916,0.58504
0.14999,122981.453,3.9016,1.8624,,,6.7111,0.5852
0.14999,123101.452,3.903,1.8674,,,6.7306,0.58541
0.14999,123221.452,3.904,1.8724,,,6.7501,0.58556
0.15,123341.451,3.9052,1.8774,,,6.7696,0.58578
0.14999,123461.453,3.9063,1.8824,,,6.7892,0.58591
0.14999,123581.452,3.9073,1.8874,,4.3396,6.8087,0.58606
0.14999,123701.452,3.9086,1.8924,0.0,0.0,6.8282,0.58625
0.14998,123821.452,3.9096,1.8973,0.0,0.0,6.8478,0.58636
0.14999,123941.451,3.9106,1.9023,0.0,0.0,6.8673,0.58655
0.15,124061.453,3.9118,1.9073,,0.0,6.8869,0.58677
0.15,124181.453,3.9127,1.9123,,,6.9064,0.58691
0.14999,124301.452,3.9138,1.9173,,,6.926,0.58703
0.15,124421.452,3.9151,1.9223,,,6.9456,0.58727
0.14999,124541.451,3.9159,1.9273,,,6.9651,0.58735
0.14999,124661.453,3.9171,1.9323,,,6.9847,0.58753
0.14999,124781.453,3.918,1.9373,,,7.0043,0.58766
0.14999,124901.453,3.919,1.9423,,,7.0239,0.58781
0.14998,125021.453,3.9202,1.9473,,,7.0435,0.58795
0.14998,125141.452,3.9211,1.9523,0.21141,,7.0631,0.58809
0.14999,125261.452,3.9224,1.9573,0.0,4.7458,7.0827,0.58832
0.14998,125381.452,3.9232,1.9623,0.0,0.0,7.1023,0.5884
0.15,125501.452,3.9243,1.9673,0.0,0.0,7.1219,0.58865
0.15,125621.452,3.9256,1.9723,0.0,0.0,7.1416,0.58884
0.14999,125741.452,3.9265,1.9773,0.0,0.0,7.1612,0.58894
0.15,125861.452,3.9279,1.9823,0.0,,7.1808,0.58919
0.14999,125981.453,3.9288,1.9873,0.0,,7.2005,0.58928
0.14999,126101.451,3.9301,1.9923,0.0,,7.2201,0.58948
0.14999,126221.453,3.9313,1.9973,0.22116,,7.2398,0.58966
0.14999,126341.452,3.9323,2.0023,0.0,4.3259,7.2594,0.58981
0.14999,126461.451,3.9337,2.0073,0.0,0.0,7.2791,0.59002
0.14999,126581.451,3.9347,2.0123,0.0,0.0,7.2988,0.59017
0.15,126701.453,3.9362,2.0173,0.0,0.0,7.3184,0.59043
0.14999,126821.452,3.9372,2.0223,0.0,4.0773,7.3381,0.59054
0.15,126941.452,3.9385,2.0273,0.0,0.0,7.3578,0.59078
0.14999,127061.452,3.94,2.0323,0.0,0.0,7.3775,0.59096
0.14999,127181.452,3.9412,2.0373,0.25004,0.0,7.3972,0.59114
0.14999,127301.453,3.9427,2.0423,0.0,3.8032,7.4169,0.59137
0.14999,127421.452,3.9439,2.0473,0.0,0.0,7.4366,0.59155
0.14998,127541.453,3.9453,2.0523,0.0,0.0,7.4563,0.59172
0.14999,127661.454,3.9469,2.0573,0.0,0.0,7.4761,0.592
0.14999,127781.451,3.9482,2.0623,0.0,,7.4958,0.59219
0.15,127901.451,3.9499,2.0673,0.0,,7.5156,0.59249
0.14999,128021.453,3.9512,2.0723,0.28648,,7.5353,0.59264
0.14999,128141.451,3.9527,2.0773,0.0,3.3502,7.5551,0.59287
0.14999,128261.453,3.9545,2.0823,0.0,0.0,7.5748,0.59314
0.14998,128381.453,3.9558,2.0873,0.0,0.0,7.5946,0.59329
0.14998,128501.452,3.9576,2.0923,0.0,3.1683,7.6144,0.59356
0.14999,128621.453,3.9591,2.0973,0.0,0.0,7.6342,0.59383
0.14999,128741.452,3.9608,2.1023,0.0,0.0,7.654,0.59408
0.14999,128861.452,3.9626,2.1073,,3.0195,7.6738,0.59435
0.15,128981.451,3.9642,2.1123,,0.0,7.6936,0.59463
0.14999,129101.451,3.9661,2.1173,,0.0,7.7134,0.59488
0.14998,129221.451,3.9677,2.1223,,2.8862,7.7333,0.59508
0.14999,129341.452,3.9696,2.1273,,0.0,7.7531,0.5954
0.14999,129461.451,3.9714,2.1323,0.35001,0.0,7.7729,0.59567
0.14998,129581.453,3.9732,2.1373,0.0,,7.7928,0.5959
0.15,129701.452,3.9752,2.1423,0.0,,7.8127,0.59628
0.14998,129821.452,3.9769,2.1473,0.0,,7.8326,0.59646
0.14999,129941.453,3.979,2.1523,0.0,,7.8524,0.59681
0.14998,130061.452,3.9808,2.1573,0.0,,7.8723,0.59704
0.14998,130181.452,3.9827,2.1623,,2.5668,7.8922,0.59733
0.14999,130301.452,3.9849,2.1673,,0.0,7.9122,0.5977
0.14999,130421.452,3.9867,2.1723,,0.0,7.9321,0.59797
0.14999,130541.453,3.9889,2.1773,,,7.952,0.5983
0.14999,130661.451,3.9908,2.1823,,,7.972,0.59858
0.14999,130781.452,3.9929,2.1873,,2.4395,7.9919,0.5989
0.14998,130901.453,3.9951,2.1923,,0.0,8.0119,0.59919
0.14998,131021.451,3.997,2.1973,,0.0,8.0319,0.59947
0.14999,131141.451,3.9993,2.2023,,,8.0519,0.59986
0.14999,131261.452,4.0013,2.2073,0.41742,,8.0719,0.60015
0.14998,131381.453,4.0034,2.2123,0.0,,8.0919,0.60043
0.14998,131501.453,4.0057,2.2173,0.0,,8.1119,0.60077
0.14999,131621.451,4.0076,2.2223,0.0,2.3404,8.1319,0.6011
0.14999,131741.451,4.01,2.2273,0.0,0.0,8.152,0.60146
0.14999,131861.452,4.0119,2.2323,0.42796,0.0,8.172,0.60174
0.14999,131981.452,4.0141,2.2373,0.0,,8.1921,0.60207
0.14999,132101.453,4.0164,2.2423,0.0,,8.2122,0.60242
0.14999,132221.451,4.0184,2.2473,0.0,,8.2322,0.60272
0.14999,132341.451,4.0207,2.2523,0.0,,8.2523,0.60306
0.14999,132461.452,4.0227,2.2573,,2.3565,8.2724,0.60336
0.14999,132581.452,4.0247,2.2623,,0.0,8.2926,0.60366
0.14999,132701.452,4.0271,2.2673,,0.0,8.3127,0.60402
0.14999,132821.453,4.0289,2.2723,,,8.3328,0.60429
0.14999,132941.454,4.0312,2.2773,,,8.353,0.60464
0.15,133061.452,4.0331,2.2823,,2.4098,8.3731,0.60497
0.14999,133181.452,4.035,2.2873,,0.0,8.3933,0.60521
0.14999,133301.452,4.0373,2.2923,,0.0,8.4135,0.60555
0.14998,133421.453,4.0391,2.2973,,,8.4337,0.60578
0.14999,133541.452,4.0413,2.3023,0.40417,,8.4539,0.60615
0.14999,133661.451,4.043,2.3073,0.0,2.5312,8.4741,0.60641
0.14999,133781.452,4.0452,2.3123,0.0,0.0,8.4943,0.60674
0.14998,133901.451,4.047,2.3173,0.0,0.0,8.5145,0.60697
0.14998,134021.452,4.0488,2.3223,0.0,,8.5348,0.60724
0.14998,134141.452,4.0508,2.3273,0.0,,8.555,0.60754
0.15,134261.451,4.0525,2.3323,,2.6825,8.5753,0.60788
0.14998,134381.452,4.0545,2.3373,,0.0,8.5955,0.60809
0.14999,134501.452,4.0563,2.3423,,0.0,8.6158,0.6084
0.14998,134621.452,4.0578,2.3473,,2.7811,8.6361,0.60859
0.14998,134741.453,4.0598,2.3523,,0.0,8.6564,0.60889
0.14999,134861.453,4.0613,2.3573,0.3538,0.0,8.6767,0.60915
0.14999,134981.453,4.0631,2.3623,0.0,2.9444,8.697,0.60942
0.14999,135101.453,4.0645,2.3673,0.0,0.0,8.7173,0.60963
0.15,135221.454,4.0661,2.3723,0.0,0.0,8.7376,0.60992
0.14999,135341.451,4.0678,2.3773,0.0,3.1641,8.758,0.61013
0.14999,135461.452,4.0691,2.3823,0.0,0.0,8.7783,0.61032
0.14999,135581.454,4.0706,2.3873,0.0,0.0,8.7987,0.61055
0.14999,135701.454,4.072,2.3923,,0.0,8.819,0.61076
0.14998,135821.452,4.0732,2.3973,,,8.8394,0.6109
0.14999,135941.453,4.0746,2.4023,,,8.8598,0.61115
0.14999,136061.452,4.0756,2.4073,,,8.8801,0.6113
0.14999,136181.451,4.0769,2.4123,,,8.9005,0.61149
0.14999,136301.452,4.0777,2.4173,,,8.9209,0.61161
0.14999,136421.451,4.0787,2.4223,,,8.9413,0.61176
0.15,136541.453,4.0797,2.4273,,0.0,8.9617,0.61196
0.14999,136661.452,4.0803,2.4323,,0.0,8.9821,0.612
0.14999,136781.452,4.0811,2.4373,,0.0,9.0025,0.61212
0.15,136901.454,4.0816,2.4423,,0.0,9.0229,0.61224
0.14999,137021.451,4.0823,2.4473,,6.4358,9.0433,0.6123
0.14997,137141.453,4.083,2.4523,,0.0,9.0637,0.61233