File: Data/monotonic_segments/Cycle 295_discharge.csv
Current(A),Test_Time(s),Voltage(V),Discharge_Capacity(Ah),dV/dQ(V/Ah),dQ/dV(Ah/V),Discharge_Energy(Wh),Power(W)
-0.15002,14329.463,4.0691,0.40005,,13.23,1.6392,-0.61045
-0.15002,14449.462,4.0685,0.40505,,0.0,1.6595,-0.61036
-0.15001,14569.462,4.0682,0.41005,,0.0,1.6799,-0.61027
-0.15002,14689.463,4.0677,0.41505,,0.0,1.7002,-0.61024
-0.15002,14809.464,4.067,0.42005,,0.0,1.7205,-0.61013
-0.15001,14929.463,4.0667,0.42506,,0.0,1.7409,-0.61005
-0.15002,15049.462,4.0658,0.43006,,0.0,1.7612,-0.60995
-0.15002,15169.463,4.0653,0.43506,,0.0,1.7815,-0.60988
-0.15003,15289.464,4.0646,0.44006,,0.0,1.8019,-0.60981
-0.15002,15409.462,4.0636,0.44506,,,1.8222,-0.60962
-0.15002,15529.462,4.0629,0.45006,,,1.8425,-0.60952
-0.15002,15649.462,4.0618,0.45506,,,1.8628,-0.60935
-0.15002,15769.462,4.0609,0.46006,,,1.8831,-0.60922
-0.15002,15889.463,4.0599,0.46506,,,1.9034,-0.60907
-0.15003,16009.464,4.0586,0.47006,,5.1734,1.9237,-0.60891
-0.15002,16129.463,4.0576,0.47506,,0.0,1.944,-0.60872
-0.15002,16249.462,4.0562,0.48006,,0.0,1.9643,-0.60851
-0.15002,16369.463,4.055,0.48506,,0.0,1.9846,-0.60833
-0.15003,16489.465,4.0537,0.49006,0.21581,4.08,2.0049,-0.60818
-0.15002,16609.464,4.0522,0.49506,0.0,0.0,2.0251,-0.60791
-0.15003,16729.463,4.051,0.50006,0.0,0.0,2.0454,-0.60777
-0.15002,16849.464,4.0493,0.50507,0.0,0.0,2.0657,-0.60748
-0.15002,16969.463,4.0479,0.51007,0.0,,2.0859,-0.60727
-0.15002,17089.462,4.0465,0.51507,0.0,,2.1061,-0.60706
-0.15002,17209.464,4.0448,0.52007,0.0,,2.1264,-0.6068
-0.15003,17329.463,4.0434,0.52507,,,2.1466,-0.60663
-0.15003,17449.462,4.0416,0.53007,,,2.1668,-0.60636
-0.15002,17569.463,4.0402,0.53507,,,2.187,-0.60611
-0.15002,17689.463,4.0385,0.54007,,3.0813,2.2072,-0.60586
-0.15002,17809.464,4.0367,0.54507,,0.0,2.2274,-0.60559
-0.15002,17929.463,4.0351,0.55007,,0.0,2.2476,-0.60535
-0.15002,18049.462,4.0333,0.55507,,2.9906,2.2678,-0.60508
-0.15003,18169.463,4.0316,0.56007,,0.0,2.2879,-0.60486
-0.15002,18289.462,4.03,0.56507,0.0,0.0,2.3081,-0.60458
-0.15002,18409.462,4.0281,0.57007,0.0,,2.3282,-0.6043
-0.15002,18529.462,4.0265,0.57507,0.0,,2.3484,-0.60406
-0.15002,18649.463,4.0245,0.58008,0.0,,2.3685,-0.60376
-0.15002,18769.463,4.0229,0.58508,,,2.3886,-0.60352
-0.15003,18889.464,4.021,0.59008,,,2.4087,-0.60327
-0.15002,19009.464,4.0189,0.59508,,2.7253,2.4288,-0.60292
-0.15002,19129.463,4.0172,0.60008,,0.0,2.4489,-0.60266
-0.15002,19249.463,4.0153,0.60508,,0.0,2.469,-0.60238
-0.15001,19369.462,4.0132,0.61008,,2.6021,2.4891,-0.60202
-0.15001,19489.463,4.0113,0.61508,,0.0,2.5091,-0.60174
-0.15003,19609.463,4.0091,0.62008,0.0,0.0,2.5292,-0.60149
-0.15004,19729.462,4.0071,0.62508,0.0,,2.5492,-0.60123
-0.15001,19849.462,4.0052,0.63008,0.0,,2.5693,-0.60082
-0.15001,19969.462,4.003,0.63508,,,2.5893,-0.60049
-0.15002,20089.463,4.001,0.64008,,,2.6093,-0.60023
-0.15002,20209.463,3.999,0.64508,,2.4244,2.6293,-0.59993
-0.15003,20329.464,3.9968,0.65008,,0.0,2.6493,-0.59964
-0.15001,20449.462,3.9949,0.65509,,0.0,2.6693,-0.59927
-0.15002,20569.464,3.9926,0.66009,,,2.6893,-0.59897
-0.15001,20689.462,3.9905,0.66509,,,2.7092,-0.59861
-0.15002,20809.464,3.9886,0.67009,,2.3997,2.7292,-0.59837
-0.15002,20929.464,3.9863,0.67509,,0.0,2.7491,-0.59802
-0.15002,21049.463,3.9845,0.68009,,0.0,2.769,-0.59775
-0.15001,21169.463,3.9822,0.68509,,,2.789,-0.59737
-0.15002,21289.464,3.9802,0.69009,,,2.8089,-0.59711
-0.15002,21409.464,3.9782,0.69509,,2.4203,2.8288,-0.59681
-0.15002,21529.462,3.976,0.70009,,0.0,2.8487,-0.59648
-0.15002,21649.462,3.9742,0.70509,0.40975,0.0,2.8685,-0.59621
-0.15001,21769.463,3.972,0.71009,0.0,,2.8884,-0.59584
-0.15003,21889.463,3.9702,0.71509,0.0,,2.9083,-0.59565
-0.15002,22009.462,3.968,0.72009,0.0,2.5202,2.9281,-0.59528
-0.15001,22129.464,3.9661,0.72509,0.0,0.0,2.9479,-0.59495
-0.15002,22249.463,3.9643,0.7301,0.0,0.0,2.9678,-0.59472
-0.15002,22369.462,3.9623,0.7351,,,2.9876,-0.59442
-0.15001,22489.463,3.9605,0.7401,,,3.0074,-0.59411
-0.15001,22609.464,3.9585,0.7451,,2.6366,3.0272,-0.59381
-0.15001,22729.465,3.9567,0.7501,,0.0,3.047,-0.59354
-0.15003,22849.463,3.955,0.7551,,0.0,3.0668,-0.59337
-0.15003,22969.463,3.953,0.7601,,,3.0865,-0.59307
-0.15003,23089.462,3.9514,0.7651,,,3.1063,-0.59283
-0.15002,23209.464,3.9497,0.7701,,,3.1261,-0.59253
-0.15002,23329.462,3.9477,0.7751,,,3.1458,-0.59223
-0.15002,23449.462,3.9462,0.7801,,,3.1656,-0.59201
-0.15003,23569.464,3.9444,0.7851,,,3.1853,-0.59178
-0.15003,23689.463,3.9427,0.7901,,,3.205,-0.59152
-0.15002,23809.463,3.9413,0.7951,,,3.2247,-0.59127
-0.15003,23929.462,3.9394,0.8001,,,3.2444,-0.59103
-0.15001,24049.462,3.938,0.8051,,,3.2641,-0.59074
-0.15002,24169.464,3.9364,0.81011,,,3.2838,-0.59054
-0.15002,24289.464,3.9348,0.81511,,,3.3035,-0.5903
-0.15002,24409.464,3.9334,0.82011,,3.288,3.3232,-0.59009
-0.15002,24529.463,3.9317,0.82511,,0.0,3.3428,-0.58983
-0.15001,24649.462,3.9305,0.83011,,0.0,3.3625,-0.58961
-0.15002,24769.462,3.9288,0.83511,,3.3929,3.3821,-0.5894
-0.15002,24889.465,3.9274,0.84011,,0.0,3.4018,-0.58919
-0.15003,25009.464,3.9262,0.84511,,0.0,3.4214,-0.58905
-0.15002,25129.462,3.9246,0.85011,0.0,0.0,3.441,-0.58877
-0.15002,25249.463,3.9234,0.85511,,3.5675,3.4607,-0.58859
-0.15003,25369.464,3.9219,0.86011,,0.0,3.4803,-0.5884
-0.15001,25489.464,3.9208,0.86511,,0.0,3.4999,-0.58816
-0.15002,25609.463,3.9195,0.87011,,0.0,3.5195,-0.588
-0.15002,25729.463,3.918,0.87511,,,3.5391,-0.58778
-0.15002,25849.463,3.917,0.88012,,,3.5587,-0.58763
-0.15002,25969.464,3.9155,0.88512,,,3.5783,-0.5874
-0.15003,26089.464,3.9145,0.89012,,,3.5978,-0.58729
-0.15003,26209.462,3.9131,0.89512,,,3.6174,-0.58708
-0.15002,26329.463,3.9119,0.90012,,,3.637,-0.58686
-0.15002,26449.462,3.9109,0.90512,,,3.6565,-0.58671
-0.15002,26569.463,3.9096,0.91012,,,3.6761,-0.58652
-0.15001,26689.462,3.9086,0.91512,,4.2717,3.6956,-0.58633
-0.15001,26809.462,3.9072,0.92012,,0.0,3.7152,-0.58612
-0.15002,26929.462,3.9062,0.92512,,0.0,3.7347,-0.58601
-0.15002,27049.462,3.9051,0.93012,,0.0,3.7542,-0.58584
-0.15003,27169.464,3.9038,0.93512,0.23022,4.3725,3.7738,-0.58569
-0.15002,27289.464,3.9029,0.94012,0.0,0.0,3.7933,-0.58551
-0.15003,27409.462,3.9015,0.94512,0.0,0.0,3.8128,-0.58534
-0.15001,27529.465,3.9004,0.95012,0.0,0.0,3.8323,-0.5851
-0.15003,27649.464,3.8995,0.95513,0.0,0.0,3.8518,-0.58504
-0.15002,27769.464,3.8981,0.96013,0.0,,3.8713,-0.58479
-0.15002,27889.463,3.8972,0.96513,0.0,,3.8908,-0.58466
-0.15002,28009.463,3.8959,0.97013,0.0,,3.9103,-0.58446
-0.15002,28129.463,3.8947,0.97513,0.0,,3.9298,-0.58428
-0.15002,28249.464,3.8938,0.98013,0.2268,4.48,3.9492,-0.58415
-0.15001,28369.463,3.8924,0.98513,0.0,0.0,3.9687,-0.5839
-0.15003,28489.464,3.8914,0.99013,0.0,0.0,3.9882,-0.58383
-0.15003,28609.463,3.8901,0.99513,0.0,0.0,4.0076,-0.58363
-0.15002,28729.463,3.8889,1.0001,0.0,0.0,4.0271,-0.58341
-0.15001,28849.463,3.8878,1.0051,0.0,,4.0465,-0.58321
-0.15001,28969.462,3.8864,1.0101,0.0,,4.066,-0.583
-0.15003,29089.462,3.8854,1.0151,0.0,,4.0854,-0.58293
-0.15003,29209.463,3.8839,1.0201,0.24253,,4.1048,-0.5827
-0.15002,29329.462,3.8826,1.0251,0.0,,4.1242,-0.58247
-0.15002,29449.463,3.8815,1.0301,0.0,,4.1437,-0.5823
-0.15003,29569.462,3.88,1.0351,0.0,,4.1631,-0.58212
-0.15002,29689.463,3.8786,1.0401,0.0,3.7624,4.1825,-0.58187
-0.15003,29809.464,3.8774,1.0451,0.0,0.0,4.2018,-0.58173
-0.15001,29929.462,3.8758,1.0501,0.0,0.0,4.2212,-0.58141
-0.15001,30049.463,3.8745,1.0551,0.0,0.0,4.2406,-0.58121
-0.15002,30169.464,3.8729,1.0601,,,4.26,-0.58101
-0.15002,30289.465,3.8712,1.0651,,,4.2793,-0.58076
-0.15002,30409.462,3.8699,1.0701,,,4.2987,-0.58056
-0.15002,30529.463,3.868,1.0751,,3.2215,4.318,-0.58028
-0.15002,30649.462,3.8665,1.0801,,0.0,4.3374,-0.58005
-0.15002,30769.464,3.8648,1.0851,,0.0,4.3567,-0.5798
-0.15002,30889.462,3.8629,1.0901,,,4.376,-0.57951
-0.15002,31009.462,3.8612,1.0951,,,4.3954,-0.57926
-0.15002,31129.463,3.8592,1.1001,,,4.4147,-0.57896
-0.15002,31249.462,3.8573,1.1051,,,4.4339,-0.57867
-0.15002,31369.462,3.8552,1.1101,,,4.4532,-0.57836
-0.15002,31489.463,3.8532,1.1151,0.38118,2.5256,4.4725,-0.57806
-0.15001,31609.463,3.8512,1.1201,0.0,0.0,4.4918,-0.57772
-0.15002,31729.464,3.8489,1.1251,0.0,0.0,4.511,-0.57741
-0.15003,31849.462,3.8468,1.1301,0.0,,4.5303,-0.57714
-0.15002,31969.464,3.8444,1.1351,0.0,,4.5495,-0.57674
-0.15003,32089.464,3.8422,1.1402,,,4.5687,-0.57645
-0.15002,32209.462,3.8401,1.1452,,,4.5879,-0.57609
-0.15002,32329.464,3.8377,1.1502,,,4.6071,-0.57573
-0.15002,32449.464,3.8355,1.1552,,0.0,4.6263,-0.5754
-0.15003,32569.464,3.8332,1.1602,0.45429,2.1344,4.6455,-0.57509
-0.15002,32689.462,3.8308,1.1652,0.0,0.0,4.6646,-0.5747
-0.15002,32809.463,3.8288,1.1702,0.0,2.2623,4.6838,-0.5744
-0.15002,32929.463,3.8264,1.1752,0.0,0.0,4.7029,-0.57404
-0.15002,33049.464,3.8241,1.1802,0.0,0.0,4.7221,-0.57369
-0.15002,33169.464,3.8221,1.1852,,,4.7412,-0.57339
-0.15002,33289.463,3.8198,1.1902,,,4.7603,-0.57305
-0.15001,33409.464,3.818,1.1952,,2.3555,4.7794,-0.57274
-0.15002,33529.464,3.8157,1.2002,,0.0,4.7985,-0.57243
-0.15002,33649.463,3.8138,1.2052,0.41916,2.4378,4.8176,-0.57215
-0.15003,33769.464,3.8119,1.2102,0.0,0.0,4.8366,-0.5719
-0.15002,33889.462,3.8098,1.2152,0.0,0.0,4.8557,-0.57155
-0.15002,34009.464,3.808,1.2202,0.0,,4.8747,-0.57128
-0.15002,34129.462,3.8059,1.2252,0.0,0.0,4.8938,-0.57096
-0.15002,34249.462,3.8042,1.2302,0.38864,0.0,4.9128,-0.57071
-0.15002,34369.463,3.8022,1.2352,0.0,,4.9318,-0.57041
-0.15002,34489.464,3.8002,1.2402,0.0,,4.9508,-0.57011
-0.15003,34609.462,3.7987,1.2452,,2.6702,4.9698,-0.56992
-0.15002,34729.462,3.7966,1.2502,,0.0,4.9888,-0.56957
-0.15002,34849.462,3.795,1.2552,,0.0,5.0078,-0.56933
-0.15001,34969.465,3.7931,1.2602,,2.8046,5.0268,-0.569
-0.15001,35089.462,3.7914,1.2652,,0.0,5.0457,-0.56875
-0.15003,35209.464,3.7897,1.2702,,0.0,5.0647,-0.56857
-0.15003,35329.462,3.7879,1.2752,,2.8732,5.0836,-0.5683
-0.15001,35449.464,3.7863,1.2802,,0.0,5.1026,-0.56798
-0.15001,35569.464,3.7844,1.2852,,0.0,5.1215,-0.5677
-0.15002,35689.462,3.7828,1.2902,,,5.1404,-0.5675
-0.15002,35809.464,3.7812,1.2952,,,5.1593,-0.56726
-0.15002,35929.464,3.7794,1.3002,,,5.1782,-0.56699
-0.15002,36049.462,3.7779,1.3052,,,5.1971,-0.56676
-0.15002,36169.465,3.7761,1.3102,,,5.216,-0.56649
-0.15002,36289.463,3.7745,1.3152,,,5.2349,-0.56625
-0.15002,36409.463,3.773,1.3202,,,5.2538,-0.56603
-0.15002,36529.462,3.7711,1.3252,,,5.2726,-0.56574
-0.15001,36649.465,3.7697,1.3302,,,5.2915,-0.56549
-0.15002,36769.464,3.7679,1.3352,,3.046,5.3103,-0.56526
-0.15002,36889.463,3.7663,1.3402,,0.0,5.3292,-0.56502
-0.15002,37009.462,3.7648,1.3452,,0.0,5.348,-0.5648
-0.15002,37129.463,3.763,1.3502,,3.1128,5.3668,-0.56453
-0.15002,37249.463,3.7614,1.3552,,0.0,5.3856,-0.56429
-0.15001,37369.464,3.76,1.3602,,0.0,5.4044,-0.56404
-0.15002,37489.462,3.7582,1.3652,,3.0649,5.4232,-0.56381
-0.15002,37609.462,3.7567,1.3702,,0.0,5.442,-0.56358
-0.15003,37729.462,3.7549,1.3752,,0.0,5.4608,-0.56335
-0.15002,37849.463,3.7533,1.3802,0.32908,3.0708,5.4796,-0.56307
-0.15002,37969.462,3.7519,1.3852,0.0,0.0,5.4983,-0.56286
-0.15002,38089.462,3.75,1.3902,0.0,0.0,5.5171,-0.56258
-0.15003,38209.462,3.7486,1.3952,0.0,3.0587,5.5358,-0.5624
-0.15002,38329.465,3.7468,1.4002,0.0,0.0,5.5546,-0.56209
-0.15002,38449.462,3.7453,1.4052,0.0,0.0,5.5733,-0.56187
-0.15002,38569.463,3.7437,1.4102,0.32613,2.9899,5.592,-0.56163
-0.15003,38689.463,3.7418,1.4152,0.0,0.0,5.6108,-0.56138
-0.15002,38809.462,3.7404,1.4202,0.0,0.0,5.6295,-0.56113
-0.15002,38929.463,3.7386,1.4252,0.0,3.0985,5.6482,-0.56086
-0.15002,39049.462,3.737,1.4302,0.0,0.0,5.6669,-0.56062
-0.15003,39169.462,3.7354,1.4352,0.0,0.0,5.6855,-0.56042
-0.15001,39289.464,3.7336,1.4402,0.32654,3.029,5.7042,-0.56008
-0.15002,39409.464,3.7321,1.4452,0.0,0.0,5.7229,-0.55989
-0.15002,39529.463,3.7302,1.4502,0.0,0.0,5.7415,-0.5596
-0.15002,39649.462,3.7287,1.4552,0.0,2.9827,5.7602,-0.55938
-0.15002,39769.462,3.7271,1.4602,0.0,0.0,5.7788,-0.55914
-0.15002,39889.463,3.7252,1.4652,0.0,0.0,5.7975,-0.55885
-0.15001,40009.462,3.7238,1.4702,0.33535,3.0201,5.8161,-0.55861
-0.15002,40129.462,3.722,1.4752,0.0,0.0,5.8347,-0.55837
-0.15002,40249.462,3.7203,1.4802,0.0,0.0,5.8533,-0.55812
-0.15002,40369.462,3.7189,1.4852,0.0,0.0,5.8719,-0.55791
-0.15003,40489.462,3.717,1.4902,0.0,,5.8905,-0.55766
-0.15002,40609.463,3.7155,1.4952,0.0,,5.9091,-0.5574
-0.15003,40729.464,3.7139,1.5002,0.32618,,5.9277,-0.5572
-0.15002,40849.464,3.7121,1.5052,0.0,,5.9462,-0.55689
-0.15002,40969.464,3.7106,1.5102,0.0,,5.9648,-0.55666
-0.15002,41089.462,3.7088,1.5152,0.0,,5.9834,-0.55639
-0.15002,41209.463,3.7072,1.5202,0.0,,6.0019,-0.55615
-0.15002,41329.463,3.7058,1.5252,0.0,,6.0204,-0.55594
-0.15002,41449.462,3.704,1.5302,0.0,,6.039,-0.55567
-0.15002,41569.464,3.7024,1.5352,,,6.0575,-0.55543
-0.15003,41689.462,3.701,1.5402,,,6.076,-0.55526
-0.15003,41809.462,3.6993,1.5452,,,6.0945,-0.55501
-0.15002,41929.463,3.6979,1.5502,,,6.113,-0.55476
-0.15002,42049.464,3.6961,1.5552,,,6.1315,-0.55449
-0.15002,42169.463,3.6948,1.5602,,,6.15,-0.55429
-0.15002,42289.463,3.6932,1.5652,,3.2251,6.1684,-0.55405
-0.15001,42409.464,3.6916,1.5702,,0.0,6.1869,-0.55378
-0.15002,42529.462,3.6902,1.5752,,0.0,6.2053,-0.5536
-0.15002,42649.462,3.6885,1.5802,,3.289,6.2238,-0.55335
-0.15002,42769.463,3.6872,1.5852,,0.0,6.2422,-0.55315
-0.15002,42889.462,3.6856,1.5902,,0.0,6.2607,-0.55291
-0.15002,43009.462,3.6841,1.5952,,0.0,6.2791,-0.55269
-0.15004,43129.463,3.6828,1.6002,,,6.2975,-0.55257
-0.15002,43249.464,3.6812,1.6052,,,6.3159,-0.55225
-0.15003,43369.462,3.68,1.6102,,,6.3343,-0.55211
-0.15002,43489.464,3.6784,1.6152,,3.4681,6.3527,-0.55183
-0.15002,43609.464,3.677,1.6202,,0.0,6.3711,-0.55162
-0.15001,43729.462,3.6757,1.6252,,0.0,6.3895,-0.55139
-0.15003,43849.462,3.6742,1.6302,,0.0,6.4079,-0.55124
-0.15,43969.464,3.673,1.6352,,,6.4263,-0.55095
-0.15002,44089.462,3.6715,1.6402,,,6.4446,-0.5508
-0.15002,44209.464,3.6702,1.6452,,,6.463,-0.5506
-0.15002,44329.463,3.6689,1.6502,,,6.4813,-0.55041
-0.15003,44449.462,3.6675,1.6552,,,6.4997,-0.55024
-0.15002,44569.462,3.6663,1.6602,,,6.518,-0.55002
-0.15002,44689.465,3.6649,1.6652,,,6.5363,-0.54981
-0.15003,44809.463,3.6638,1.6702,0.26237,,6.5547,-0.54968
-0.15003,44929.462,3.6623,1.6752,0.0,,6.573,-0.54945
-0.15003,45049.462,3.6611,1.6802,0.0,,6.5913,-0.54927
-0.15003,45169.463,3.66,1.6852,0.0,,6.6096,-0.54911
-0.15002,45289.462,3.6585,1.6902,0.0,,6.6279,-0.54885
-0.15002,45409.462,3.6575,1.6952,0.0,,6.6462,-0.5487
-0.15003,45529.465,3.6561,1.7002,0.0,,6.6645,-0.54852
-0.15002,45649.464,3.6549,1.7052,0.0,,6.6828,-0.54831
-0.15002,45769.464,3.6539,1.7102,0.24787,,6.701,-0.54816
-0.15001,45889.463,3.6526,1.7152,0.0,,6.7193,-0.54793
-0.15003,46009.465,3.6513,1.7202,0.0,,6.7376,-0.5478
-0.15001,46129.463,3.6503,1.7252,0.0,,6.7558,-0.54758
-0.15002,46249.465,3.6489,1.7302,0.0,,6.7741,-0.54741
-0.15002,46369.463,3.648,1.7352,0.0,,6.7923,-0.54727
-0.15003,46489.464,3.6466,1.7402,0.0,,6.8106,-0.5471
-0.15003,46609.464,3.6455,1.7452,0.0,,6.8288,-0.54693
-0.15002,46729.463,3.6445,1.7502,0.0,,6.847,-0.54675
-0.15001,46849.462,3.6433,1.7552,,4.3716,6.8652,-0.54653
-0.15002,46969.463,3.6423,1.7602,,0.0,6.8835,-0.54642
-0.15003,47089.463,3.641,1.7652,,0.0,6.9017,-0.54626
-0.15003,47209.463,3.6396,1.7702,,0.0,6.9199,-0.54605
-0.15001,47329.462,3.6389,1.7752,,0.0,6.9381,-0.54587
-0.15002,47449.463,3.6377,1.7802,,,6.9563,-0.54573
-0.15003,47569.462,3.6367,1.7852,,,6.9745,-0.54561
-0.15002,47689.462,3.6355,1.7902,0.0,,6.9926,-0.5454
-0.15002,47809.463,3.6344,1.7952,0.0,,7.0108,-0.54523
-0.15002,47929.462,3.6334,1.8002,,4.5474,7.029,-0.54508
-0.15001,48049.464,3.6322,1.8052,,0.0,7.0472,-0.54487
-0.15001,48169.464,3.6313,1.8102,,0.0,7.0653,-0.54473
-0.15002,48289.463,3.6301,1.8152,,0.0,7.0835,-0.54459
-0.15002,48409.463,3.629,1.8202,0.0,0.0,7.1016,-0.54442
-0.15002,48529.463,3.6281,1.8252,0.0,,7.1198,-0.54429
-0.15002,48649.464,3.6268,1.8302,0.0,,7.1379,-0.54409
-0.15001,48769.463,3.6259,1.8352,0.0,,7.156,-0.54392
-0.15001,48889.462,3.6247,1.8402,0.0,,7.1742,-0.54374
-0.15002,49009.463,3.6238,1.8452,0.21321,,7.1923,-0.54364
-0.15001,49129.464,3.6227,1.8502,0.0,,7.2104,-0.54344
-0.15003,49249.463,3.6215,1.8552,0.0,,7.2285,-0.54333
-0.15002,49369.462,3.6206,1.8602,0.0,,7.2466,-0.54316
-0.15002,49489.463,3.6194,1.8652,0.0,,7.2647,-0.54298
-0.15001,49609.462,3.6185,1.8703,0.0,4.6723,7.2828,-0.54281
-0.15003,49729.464,3.6175,1.8753,0.0,0.0,7.3009,-0.54273
-0.15003,49849.462,3.6162,1.8803,0.0,0.0,7.319,-0.54254
-0.15002,49969.464,3.6153,1.8853,0.0,0.0,7.3371,-0.54237
-0.15002,50089.462,3.6141,1.8903,0.0,0.0,7.3552,-0.54219
-0.15002,50209.462,3.6131,1.8953,,4.7002,7.3732,-0.54204
-0.15003,50329.462,3.6121,1.9003,,0.0,7.3913,-0.54192
-0.15002,50449.462,3.6108,1.9053,,0.0,7.4094,-0.54169
-0.15,50569.463,3.61,1.9103,,0.0,7.4274,-0.5415
-0.15002,50689.463,3.6087,1.9153,,0.0,7.4455,-0.54138
-0.15002,50809.463,3.6076,1.9203,,,7.4635,-0.54121
-0.15002,50929.463,3.6067,1.9253,,,7.4815,-0.54108
-0.15001,51049.464,3.6055,1.9303,,,7.4996,-0.54086
-0.15002,51169.462,3.6043,1.9353,,,7.5176,-0.54072
-0.15002,51289.463,3.6034,1.9403,,4.5594,7.5356,-0.54058
-0.15002,51409.462,3.6021,1.9453,,0.0,7.5536,-0.54039
-0.15002,51529.463,3.6011,1.9503,,0.0,7.5717,-0.54024
-0.15002,51649.462,3.5998,1.9553,,0.0,7.5897,-0.54004
-0.15002,51769.463,3.5988,1.9603,,0.0,7.6077,-0.53989
-0.15001,51889.463,3.5977,1.9653,,,7.6257,-0.53969
-0.15003,52009.462,3.5964,1.9703,,,7.6436,-0.53957
-0.15003,52129.462,3.5954,1.9753,0.0,,7.6616,-0.53942
-0.15001,52249.464,3.5941,1.9803,0.0,,7.6796,-0.53915
-0.15002,52369.462,3.5929,1.9853,,4.2694,7.6976,-0.53901
-0.15002,52489.464,3.5919,1.9903,,0.0,7.7155,-0.53886
-0.15002,52609.463,3.5905,1.9953,,0.0,7.7335,-0.53865
-0.15002,52729.464,3.5895,2.0003,,0.0,7.7514,-0.5385
-0.15003,52849.465,3.5881,2.0053,,4.1984,7.7694,-0.53832
-0.15003,52969.464,3.587,2.0103,,0.0,7.7873,-0.53816
-0.15002,53089.462,3.5857,2.0153,,0.0,7.8053,-0.53793
-0.15002,53209.463,3.5844,2.0203,,0.0,7.8232,-0.53773
-0.15002,53329.464,3.5833,2.0253,,4.0177,7.8411,-0.53757
-0.15,53449.462,3.5819,2.0303,0.0,0.0,7.859,-0.53729
-0.15002,53569.462,3.5806,2.0353,0.0,0.0,7.8769,-0.53716
-0.15002,53689.463,3.5794,2.0403,0.0,0.0,7.8948,-0.53698
-0.15003,53809.463,3.578,2.0453,0.0,3.9673,7.9127,-0.53681
-0.15002,53929.463,3.5769,2.0503,0.0,0.0,7.9306,-0.53661
-0.15002,54049.466,3.5756,2.0553,0.0,0.0,7.9485,-0.53641
-0.15001,54169.462,3.5741,2.0603,0.0,0.0,7.9664,-0.53615
-0.15001,54289.463,3.573,2.0653,,3.8527,7.9843,-0.53599
-0.15001,54409.463,3.5715,2.0703,,0.0,8.0021,-0.53576
-0.15001,54529.463,3.5704,2.0753,,0.0,8.02,-0.5356
-0.15004,54649.465,3.5689,2.0803,,0.0,8.0378,-0.53548
-0.15003,54769.464,3.5675,2.0853,,,8.0557,-0.53523
-0.15003,54889.462,3.5663,2.0903,,,8.0735,-0.53505
-0.15002,55009.465,3.5648,2.0953,,,8.0913,-0.53479
-0.15003,55129.464,3.5636,2.1003,0.26908,3.5494,8.1092,-0.53465
-0.15002,55249.462,3.562,2.1053,0.0,0.0,8.127,-0.53437
-0.15001,55369.463,3.5606,2.1103,0.0,0.0,8.1448,-0.53413
-0.15001,55489.462,3.5593,2.1153,0.0,0.0,8.1626,-0.53393
-0.15001,55609.462,3.5578,2.1203,0.0,3.6172,8.1804,-0.53371
-0.15002,55729.462,3.5565,2.1253,0.0,0.0,8.1982,-0.53355
-0.15001,55849.463,3.5551,2.1303,0.0,0.0,8.216,-0.5333
-0.15002,55969.464,3.5535,2.1353,0.28514,0.0,8.2337,-0.5331
-0.15003,56089.462,3.5521,2.1403,0.0,,8.2515,-0.53292
-0.15001,56209.464,3.5506,2.1453,0.0,,8.2693,-0.53263
-0.15002,56329.462,3.5491,2.1503,0.0,,8.287,-0.53244
-0.15002,56449.462,3.5476,2.1553,0.0,,8.3047,-0.53221
-0.15003,56569.463,3.546,2.1603,0.0,,8.3225,-0.53201
-0.15002,56689.464,3.5446,2.1653,0.0,,8.3402,-0.53176
-0.15001,56809.462,3.5429,2.1703,,3.2691,8.3579,-0.53147
-0.15003,56929.462,3.5414,2.1753,,0.0,8.3756,-0.53132
-0.15003,57049.462,3.5399,2.1803,,0.0,8.3934,-0.53109
-0.15003,57169.462,3.5382,2.1853,,3.2238,8.411,-0.53084
-0.15002,57289.462,3.5368,2.1903,,0.0,8.4287,-0.53059
-0.15003,57409.463,3.535,2.1953,,0.0,8.4464,-0.53036
-0.15002,57529.464,3.5334,2.2003,0.31116,0.0,8.4641,-0.53008
-0.15001,57649.463,3.532,2.2053,0.0,,8.4818,-0.52984
-0.15003,57769.464,3.5303,2.2103,0.0,,8.4994,-0.52965
-0.15002,57889.462,3.5288,2.2153,0.0,,8.5171,-0.52939
-0.15002,58009.465,3.5271,2.2203,0.0,,8.5347,-0.52914
-0.15002,58129.462,3.5256,2.2253,0.0,,8.5523,-0.52891
-0.15002,58249.462,3.5241,2.2303,0.0,,8.57,-0.52869
-0.15001,58369.462,3.5224,2.2353,,,8.5876,-0.5284
-0.15002,58489.462,3.5209,2.2403,,,8.6052,-0.52821
-0.15002,58609.462,3.5192,2.2453,,,8.6228,-0.52795
-0.15002,58729.463,3.5176,2.2503,,,8.6404,-0.52771
-0.15003,58849.463,3.5161,2.2553,,0.0,8.658,-0.52752
-0.15001,58969.462,3.5144,2.2603,,0.0,8.6756,-0.5272
-0.15001,59089.463,3.5129,2.2653,,3.2072,8.6931,-0.52697
-0.15002,59209.462,3.5112,2.2703,,0.0,8.7107,-0.52675
-0.15,59329.462,3.5096,2.2753,,0.0,8.7283,-0.52644
-0.15001,59449.463,3.5082,2.2803,,3.1469,8.7458,-0.52627
-0.15002,59569.463,3.5064,2.2853,,0.0,8.7633,-0.52603
-0.15002,59689.462,3.5049,2.2903,,0.0,8.7809,-0.52581
-0.15002,59809.463,3.5032,2.2953,0.32229,3.0496,8.7984,-0.52555
-0.15002,59929.463,3.5015,2.3003,0.0,0.0,8.8159,-0.5253
-0.15002,60049.464,3.5,2.3053,0.0,0.0,8.8334,-0.52507
-0.15001,60169.463,3.4982,2.3103,0.0,3.0777,8.8509,-0.52476
-0.15002,60289.463,3.4967,2.3153,0.0,,8.8684,-0.52457
-0.15003,60409.463,3.4949,2.3203,0.0,,8.8859,-0.52434
-0.15003,60529.464,3.4931,2.3253,0.33168,2.9468,8.9033,-0.52407
-0.15002,60649.462,3.4916,2.3303,0.0,0.0,8.9208,-0.52381
-0.15002,60769.463,3.4897,2.3353,0.0,0.0,8.9383,-0.52352
-0.15002,60889.463,3.4881,2.3403,0.0,2.8758,8.9557,-0.52328
-0.15002,61009.462,3.4861,2.3453,0.0,0.0,8.9732,-0.52298
-0.15002,61129.462,3.4844,2.3503,0.0,0.0,8.9906,-0.52273
-0.15002,61249.464,3.4826,2.3553,,2.6792,9.008,-0.52246
-0.15002,61369.464,3.4806,2.3603,,0.0,9.0254,-0.52216
-0.15003,61489.462,3.4789,2.3653,,0.0,9.0428,-0.52194
-0.15002,61609.463,3.4768,2.3703,,,9.0602,-0.52159
-0.15002,61729.462,3.475,2.3753,,,9.0776,-0.52132
-0.15002,61849.462,3.4729,2.3803,0.37906,2.5903,9.095,-0.521
-0.15003,61969.463,3.471,2.3853,0.0,0.0,9.1123,-0.52075
-0.15002,62089.463,3.4691,2.3903,0.0,0.0,9.1297,-0.52043
-0.15003,62209.465,3.467,2.3953,0.0,,9.147,-0.52015
-0.15002,62329.463,3.4651,2.4003,0.0,,9.1643,-0.51983
-0.15002,62449.463,3.463,2.4053,0.39582,2.4978,9.1817,-0.51952
-0.15002,62569.464,3.4611,2.4103,0.0,0.0,9.199,-0.51923
-0.15002,62689.464,3.4589,2.4153,0.0,0.0,9.2163,-0.5189
-0.15003,62809.462,3.4569,2.4203,0.0,,9.2336,-0.51864
-0.15001,62929.463,3.4549,2.4253,0.0,,9.2509,-0.51827
-0.15002,63049.463,3.4526,2.4303,0.41184,2.3779,9.2681,-0.51796
-0.15002,63169.462,3.4507,2.4353,0.0,0.0,9.2854,-0.51767
-0.15002,63289.462,3.4483,2.4403,0.0,0.0,9.3026,-0.51731
-0.15001,63409.462,3.4463,2.4453,0.0,,9.3199,-0.51698
-0.15002,63529.464,3.4441,2.4503,0.0,,9.3371,-0.51668
-0.15001,63649.464,3.4418,2.4553,,,9.3543,-0.5163
-0.15002,63769.464,3.4397,2.4603,,,9.3715,-0.51602
-0.15002,63889.462,3.4374,2.4653,,2.266,9.3887,-0.51568
-0.15002,64009.462,3.4355,2.4703,,0.0,9.4059,-0.51539
-0.15002,64129.463,3.4334,2.4753,0.42541,0.0,9.4231,-0.51508
-0.15002,64249.463,3.4314,2.4803,0.0,,9.4402,-0.51478
-0.15002,64369.463,3.4297,2.4853,0.0,,9.4574,-0.51452
-0.15002,64489.464,3.4278,2.4903,0.0,2.65,9.4745,-0.51424
-0.15001,64609.463,3.4263,2.4953,0.0,0.0,9.4917,-0.51398
-0.15001,64729.464,3.4247,2.5003,0.0,0.0,9.5088,-0.51374
-0.15003,64849.463,3.4231,2.5053,0.34663,0.0,9.5259,-0.51357
-0.15002,64969.463,3.4218,2.5103,0.0,,9.5431,-0.51334
-0.15003,65089.464,3.4202,2.5153,0.0,,9.5602,-0.51313
-0.15003,65209.463,3.4188,2.5203,0.0,,9.5773,-0.51292
-0.15002,65329.463,3.4176,2.5253,0.0,3.5371,9.5944,-0.51271
-0.15001,65449.463,3.4161,2.5303,0.0,0.0,9.6114,-0.51245
-0.15001,65569.463,3.4149,2.5353,0.0,0.0,9.6285,-0.51227
-0.15002,65689.462,3.4135,2.5403,0.27591,0.0,9.6456,-0.51209
-0.15001,65809.463,3.4122,2.5453,0.0,,9.6627,-0.51186
-0.15002,65929.463,3.4111,2.5503,0.0,,9.6797,-0.51173
-0.15002,66049.462,3.4097,2.5553,0.0,,9.6968,-0.51152
-0.15002,66169.463,3.4084,2.5603,0.0,,9.7138,-0.51133
-0.15002,66289.463,3.407,2.5653,0.0,,9.7309,-0.51112
-0.15001,66409.462,3.4057,2.5703,0.0,,9.7479,-0.51089
-0.15002,66529.462,3.4045,2.5753,0.0,,9.7649,-0.51074
-0.15002,66649.462,3.4029,2.5803,,3.8412,9.7819,-0.5105
-0.15001,66769.463,3.4017,2.5853,,0.0,9.799,-0.51029
-0.15001,66889.463,3.4002,2.5903,,0.0,9.816,-0.51006
-0.15003,67009.463,3.3989,2.5953,,0.0,9.833,-0.50994
-0.15001,67129.462,3.3975,2.6003,,3.6088,9.85,-0.50966
-0.15002,67249.462,3.3959,2.6053,,0.0,9.8669,-0.50945
-0.15003,67369.463,3.3946,2.6103,,0.0,9.8839,-0.50929
-0.15003,67489.463,3.3929,2.6153,0.28005,3.311,9.9009,-0.50904
-0.15002,67609.463,3.3915,2.6203,0.0,0.0,9.9179,-0.50879
-0.15002,67729.463,3.3899,2.6253,0.0,0.0,9.9348,-0.50855
-0.15002,67849.463,3.3882,2.6303,0.0,0.0,9.9518,-0.5083
-0.15001,67969.463,3.3867,2.6354,0.0,,9.9687,-0.50804
-0.15002,68089.463,3.3849,2.6404,0.0,,9.9856,-0.5078
-0.15002,68209.462,3.383,2.6454,0.32548,,10.003,-0.50752
-0.15002,68329.463,3.3814,2.6504,0.0,,10.019,-0.50728
-0.15001,68449.462,3.3793,2.6554,0.0,,10.036,-0.50693
-0.15002,68569.463,3.3776,2.6604,0.0,2.667,10.053,-0.50671
-0.15002,68689.463,3.3754,2.6654,0.0,0.0,10.07,-0.50638
-0.15,68809.463,3.3734,2.6704,0.3868,0.0,10.087,-0.50601
-0.15002,68929.464,3.3713,2.6754,0.0,,10.104,-0.50576
-0.15001,69049.463,3.3688,2.6804,0.0,,10.121,-0.50535
-0.15001,69169.463,3.3666,2.6854,0.0,,10.138,-0.50502
-0.15001,69289.463,3.3639,2.6904,0.0,,10.154,-0.50462
-0.15003,69409.462,3.3613,2.6954,,,10.171,-0.5043
-0.15002,69529.462,3.3585,2.7004,,,10.188,-0.50384
-0.15001,69649.463,3.3554,2.7054,,,10.205,-0.50334
-0.15002,69769.462,3.3524,2.7104,0.58165,1.6125,10.222,-0.50293
-0.15002,69889.465,3.3488,2.7154,0.0,0.0,10.238,-0.50239
-0.15002,70009.464,3.3452,2.7204,0.0,,10.255,-0.50185
-0.15001,70129.462,3.3412,2.7254,,1.3251,10.272,-0.50121
-0.15002,70249.463,3.3368,2.7304,,1.1976,10.288,-0.50059
-0.15001,70369.463,3.3325,2.7354,0.8563,1.106,10.305,-0.49991
-0.15001,70489.464,3.3274,2.7404,0.0,1.0321,10.322,-0.49914
-0.15001,70609.462,3.3223,2.7454,0.99093,0.95038,10.338,-0.49838
-0.15002,70729.463,3.3166,2.7504,0.0,0.92716,10.355,-0.49756
-0.15002,70849.463,3.3108,2.7554,1.1237,0.85846,10.372,-0.49669
-0.15001,70969.463,3.3046,2.7604,0.0,,10.388,-0.49572
-0.15001,71089.462,3.2978,2.7654,,0.7551,10.405,-0.4947
-0.15002,71209.464,3.2909,2.7704,1.3723,0.71665,10.421,-0.4937
-0.15002,71329.463,3.2834,2.7754,1.4562,,10.438,-0.49258
-0.15003,71449.463,3.2755,2.7804,0.0,0.62965,10.454,-0.49142
-0.15002,71569.462,3.2669,2.7854,,0.57877,10.47,-0.4901
-0.15003,71689.462,3.2577,2.7904,,0.54385,10.487,-0.48875
-0.15002,71809.462,3.248,2.7954,,0.5189,10.503,-0.48726
-0.15003,71929.463,3.2376,2.8004,,0.47695,10.519,-0.48574
-0.15001,72049.463,3.2267,2.8054,,0.45172,10.535,-0.48404
-0.15001,72169.462,3.2152,2.8104,,0.43134,10.551,-0.48231
-0.15002,72289.463,3.2029,2.8154,2.4227,0.4144,10.567,-0.4805
-0.15002,72409.463,3.1904,2.8204,2.5173,0.3906,10.583,-0.47862
-0.15002,72529.462,3.1769,2.8254,2.6367,0.36824,10.599,-0.4766
-0.15001,72649.462,3.163,2.8304,2.82,0.35869,10.615,-0.47448
-0.15002,72769.463,3.1482,2.8354,2.9188,0.33668,10.631,-0.47229
-0.15002,72889.464,3.1325,2.8404,3.1436,0.31764,10.647,-0.46994
-0.15001,73009.462,3.1162,2.8454,3.2415,0.3022,10.662,-0.46746
-0.15001,73129.464,3.0987,2.8504,3.4785,0.28272,10.678,-0.46484
-0.15001,73249.464,3.0803,2.8554,3.6877,0.26716,10.693,-0.46208
-0.15002,73369.463,3.0605,2.8604,3.9822,0.25262,10.709,-0.45914
-0.15002,73489.464,3.0392,2.8654,4.297,0.23093,10.724,-0.45594
-0.15002,73609.462,3.0164,2.8704,4.5836,0.21295,10.739,-0.45252
-0.15002,73729.462,2.9913,2.8754,5.0964,0.19314,10.754,-0.44875
-0.15002,73849.462,2.964,2.8804,5.4621,0.17761,10.769,-0.44466
-0.15002,73969.462,2.9335,2.8854,6.0791,0.16084,10.784,-0.44008
-0.15002,74089.462,2.8993,2.8904,7.0995,0.13911,10.798,-0.43495
-0.15002,74209.464,2.859,2.8954,8.5301,0.11437,10.813,-0.42891
-0.15002,74329.462,2.8049,2.9004,12.015,0.07765,10.827,-0.42079
-0.15002,74449.464,2.7154,2.9054,21.207,0.046029,10.841,-0.40736
-0.15002,74569.462,2.6016,2.9104,22.902,0.043493,10.854,-0.39029
-0.15002,74681.258,2.5,2.915,20.512,0.048667,10.866,-0.37505
-0.15048,74681.365,2.4999,2.915,20.512,0.048667,10.866,-0.37618