File: Data/monotonic_segments/Cycle 970_discharge.csv
Current(A),Test_Time(s),Voltage(V),Discharge_Capacity(Ah),dV/dQ(V/Ah),dQ/dV(Ah/V),Discharge_Energy(Wh),Power(W)
-0.15001,11311.219,4.0701,0.26495,,,1.0846,-0.61056
-0.15001,11431.218,4.0694,0.26995,,,1.1049,-0.61045
-0.15001,11551.218,4.069,0.27495,,,1.1252,-0.61039
-0.15,11671.219,4.0687,0.27995,,,1.1456,-0.61031
-0.15001,11791.22,4.068,0.28494,,,1.1659,-0.61024
-0.15002,11911.219,4.0676,0.28994,,,1.1863,-0.61022
-0.15001,12031.218,4.0669,0.29494,,,1.2066,-0.61008
-0.15001,12151.219,4.0663,0.29994,,,1.2269,-0.60999
-0.15002,12271.22,4.0659,0.30494,,,1.2472,-0.60997
-0.15,12391.219,4.065,0.30994,,,1.2676,-0.60975
-0.15001,12511.219,4.0645,0.31494,,,1.2879,-0.60972
-0.15,12631.218,4.0635,0.31994,,,1.3082,-0.60953
-0.15002,12751.219,4.0628,0.32494,0.10665,7.6008,1.3285,-0.6095
-0.15,12871.219,4.0621,0.32994,0.0,0.0,1.3488,-0.60932
-0.15001,12991.219,4.061,0.33494,0.0,0.0,1.3691,-0.60919
-0.15001,13111.218,4.0602,0.33994,0.0,0.0,1.3894,-0.60907
-0.15001,13231.219,4.0592,0.34493,0.0,0.0,1.4097,-0.60892
-0.15002,13351.218,4.058,0.34993,0.0,0.0,1.43,-0.60878
-0.15001,13471.218,4.0571,0.35493,0.0,,1.4503,-0.60861
-0.15002,13591.219,4.0558,0.35993,0.0,,1.4706,-0.60845
-0.15,13711.218,4.0547,0.36493,0.0,,1.4908,-0.60821
-0.15001,13831.218,4.0536,0.36993,0.0,,1.5111,-0.60808
-0.15001,13951.219,4.0522,0.37493,,,1.5314,-0.60787
-0.15,14071.219,4.0511,0.37993,,,1.5516,-0.60767
-0.15001,14191.218,4.0496,0.38493,,,1.5719,-0.60748
-0.15002,14311.218,4.0484,0.38993,,,1.5921,-0.60734
-0.15001,14431.218,4.0472,0.39492,,,1.6124,-0.60712
-0.15001,14551.219,4.0457,0.39992,,,1.6326,-0.6069
-0.15,14671.218,4.0444,0.40492,,,1.6528,-0.60666
-0.15,14791.217,4.0428,0.40992,0.26583,3.6212,1.673,-0.60642
-0.15001,14911.218,4.0415,0.41492,0.0,,1.6932,-0.60627
-0.15001,15031.219,4.0401,0.41992,0.0,,1.7134,-0.60606
-0.15002,15151.217,4.0384,0.42492,0.0,,1.7336,-0.60584
-0.15,15271.219,4.0372,0.42992,0.0,,1.7538,-0.60558
-0.15001,15391.218,4.0355,0.43491,0.0,,1.774,-0.60537
-0.15001,15511.218,4.0341,0.43991,,,1.7941,-0.60516
-0.15001,15631.218,4.0326,0.44491,0.29723,3.2964,1.8143,-0.60493
-0.15001,15751.218,4.0309,0.44991,0.0,0.0,1.8344,-0.60468
-0.15001,15871.218,4.0295,0.45491,0.0,0.0,1.8546,-0.60447
-0.15,15991.218,4.0277,0.45991,0.0,3.1957,1.8747,-0.60416
-0.15001,16111.22,4.0262,0.46491,0.0,0.0,1.8949,-0.60397
-0.15001,16231.22,4.0245,0.4699,0.0,0.0,1.915,-0.60372
-0.15001,16351.219,4.0228,0.4749,0.3188,0.0,1.9351,-0.60346
-0.15001,16471.22,4.0214,0.4799,0.0,,1.9552,-0.60325
-0.15001,16591.218,4.0195,0.4849,0.0,,1.9753,-0.60297
-0.15001,16711.219,4.0179,0.4899,0.0,2.9567,1.9954,-0.60273
-0.15001,16831.218,4.0162,0.4949,0.0,0.0,2.0155,-0.60247
-0.15002,16951.219,4.0143,0.4999,,0.0,2.0355,-0.60223
-0.15001,17071.218,4.0128,0.5049,0.34215,2.8991,2.0556,-0.60196
-0.15001,17191.219,4.0109,0.50989,0.0,0.0,2.0757,-0.60168
-0.15001,17311.218,4.009,0.51489,0.0,0.0,2.0957,-0.60139
-0.15001,17431.218,4.0074,0.51989,0.0,2.7417,2.1157,-0.60115
-0.15001,17551.218,4.0054,0.52489,0.0,0.0,2.1358,-0.60085
-0.15002,17671.219,4.0037,0.52989,0.0,0.0,2.1558,-0.60064
-0.15001,17791.219,4.0019,0.53489,,,2.1758,-0.60033
-0.15,17911.219,4.0,0.53989,,,2.1958,-0.6
-0.15,18031.218,3.9983,0.54489,,,2.2158,-0.59975
-0.15,18151.218,3.9963,0.54988,,,2.2358,-0.59945
-0.15001,18271.219,3.9946,0.55488,,,2.2557,-0.59923
-0.15,18391.219,3.9926,0.55988,0.37548,2.6997,2.2757,-0.59889
-0.15,18511.219,3.9907,0.56488,0.0,0.0,2.2957,-0.59861
-0.15,18631.219,3.989,0.56988,0.0,0.0,2.3156,-0.59835
-0.15001,18751.219,3.987,0.57488,0.0,2.6571,2.3355,-0.59809
-0.15,18871.218,3.9851,0.57988,0.0,0.0,2.3555,-0.59777
-0.15002,18991.219,3.9834,0.58488,0.0,0.0,2.3754,-0.59759
-0.15001,19111.218,3.9813,0.58988,,,2.3953,-0.59723
-0.15001,19231.218,3.9796,0.59488,,,2.4152,-0.59698
-0.15001,19351.218,3.9776,0.59988,,2.6612,2.4351,-0.59668
-0.15,19471.219,3.9758,0.60487,,0.0,2.455,-0.59637
-0.15001,19591.218,3.9741,0.60987,,0.0,2.4748,-0.59615
-0.15001,19711.218,3.9721,0.61487,0.36814,2.7141,2.4947,-0.59585
-0.15001,19831.218,3.9704,0.61987,0.0,0.0,2.5145,-0.5956
-0.14999,19951.219,3.9684,0.62487,0.0,0.0,2.5344,-0.59522
-0.15001,20071.219,3.9667,0.62987,0.0,,2.5542,-0.59504
-0.15001,20191.219,3.965,0.63487,0.0,,2.574,-0.59479
-0.15001,20311.219,3.963,0.63987,0.0,,2.5939,-0.59449
-0.15001,20431.218,3.9614,0.64487,,,2.6137,-0.59425
-0.15001,20551.218,3.9594,0.64986,,,2.6335,-0.59395
-0.15,20671.218,3.9577,0.65486,,2.7886,2.6532,-0.59366
-0.15001,20791.219,3.9561,0.65986,,0.0,2.673,-0.59345
-0.15001,20911.218,3.9543,0.66486,,0.0,2.6928,-0.59318
-0.15001,21031.218,3.9526,0.66986,0.34985,2.9237,2.7126,-0.59293
-0.15,21151.219,3.951,0.67486,0.0,0.0,2.7323,-0.59265
-0.15,21271.221,3.9492,0.67986,0.0,0.0,2.7521,-0.59238
-0.15001,21391.218,3.9475,0.68486,0.0,2.9919,2.7718,-0.59216
-0.15002,21511.22,3.946,0.68986,0.0,0.0,2.7915,-0.59198
-0.15001,21631.219,3.9442,0.69486,0.0,0.0,2.8113,-0.59167
-0.15001,21751.219,3.9427,0.69985,0.33462,3.034,2.831,-0.59144
-0.15,21871.219,3.9409,0.70485,0.0,0.0,2.8507,-0.59114
-0.15001,21991.219,3.9393,0.70985,0.0,0.0,2.8704,-0.59093
-0.15,22111.219,3.938,0.71485,0.0,0.0,2.8901,-0.5907
-0.15001,22231.218,3.9362,0.71985,0.0,,2.9097,-0.59047
-0.15002,22351.218,3.9349,0.72485,0.0,,2.9294,-0.59031
-0.15001,22471.218,3.9332,0.72985,0.0,,2.9491,-0.59002
-0.15001,22591.22,3.9316,0.73485,,,2.9687,-0.58978
-0.15001,22711.22,3.9304,0.73985,,,2.9884,-0.5896
-0.15,22831.22,3.9287,0.74485,,,3.008,-0.58931
-0.15001,22951.219,3.9275,0.74985,,3.3826,3.0277,-0.58916
-0.15001,23071.219,3.9258,0.75485,,0.0,3.0473,-0.58891
-0.15001,23191.219,3.9244,0.75985,,0.0,3.0669,-0.5887
-0.15001,23311.218,3.9232,0.76484,,0.0,3.0866,-0.58852
-0.15001,23431.219,3.9217,0.76984,,,3.1062,-0.58829
-0.15001,23551.219,3.9204,0.77484,,,3.1258,-0.5881
-0.15,23671.218,3.9189,0.77984,,,3.1454,-0.58784
-0.15001,23791.218,3.9175,0.78484,,3.5889,3.165,-0.58766
-0.15,23911.217,3.9164,0.78984,,0.0,3.1845,-0.58746
-0.15,24031.219,3.915,0.79484,,0.0,3.2041,-0.58725
-0.15001,24151.217,3.9138,0.79984,,0.0,3.2237,-0.58711
-0.15001,24271.218,3.9122,0.80484,0.26908,3.8254,3.2432,-0.58687
-0.15001,24391.218,3.9111,0.80984,0.0,0.0,3.2628,-0.5867
-0.15001,24511.22,3.9098,0.81484,0.0,0.0,3.2824,-0.58651
-0.15001,24631.219,3.9084,0.81984,0.0,0.0,3.3019,-0.5863
-0.15001,24751.218,3.9073,0.82484,0.0,3.9162,3.3214,-0.58613
-0.15001,24871.218,3.9059,0.82984,0.0,0.0,3.341,-0.58592
-0.15,24991.218,3.9048,0.83484,0.0,0.0,3.3605,-0.58572
-0.15001,25111.218,3.9034,0.83984,0.0,0.0,3.38,-0.58555
-0.15,25231.218,3.902,0.84484,,3.9415,3.3995,-0.5853
-0.15002,25351.218,3.9009,0.84984,,0.0,3.419,-0.58521
-0.15001,25471.218,3.8994,0.85483,,0.0,3.4385,-0.58495
-0.15001,25591.219,3.8982,0.85983,,0.0,3.458,-0.58477
-0.15,25711.219,3.897,0.86483,,,3.4775,-0.58455
-0.15001,25831.219,3.8954,0.86983,,,3.497,-0.58435
-0.15001,25951.22,3.8943,0.87483,,,3.5164,-0.58418
-0.15,26071.219,3.8927,0.87983,0.26471,,3.5359,-0.58391
-0.15001,26191.219,3.8914,0.88483,0.0,,3.5554,-0.58375
-0.15,26311.218,3.89,0.88983,0.0,,3.5748,-0.5835
-0.15001,26431.219,3.8884,0.89483,0.0,,3.5943,-0.5833
-0.15001,26551.218,3.8871,0.89983,0.0,,3.6137,-0.5831
-0.15,26671.219,3.8853,0.90483,0.0,,3.6331,-0.5828
-0.15001,26791.219,3.8839,0.90983,0.0,,3.6525,-0.58262
-0.15,26911.219,3.8824,0.91483,0.29893,3.2964,3.672,-0.58236
-0.15001,27031.218,3.8806,0.91983,0.0,0.0,3.6914,-0.58213
-0.15001,27151.218,3.8792,0.92483,0.0,0.0,3.7108,-0.58192
-0.15001,27271.219,3.8773,0.92983,0.0,3.0786,3.7302,-0.58163
-0.15001,27391.219,3.8757,0.93483,0.0,0.0,3.7495,-0.58139
-0.15002,27511.219,3.874,0.93983,0.0,0.0,3.7689,-0.58118
-0.15001,27631.218,3.8722,0.94483,0.33355,2.9203,3.7883,-0.58087
-0.15001,27751.218,3.8705,0.94982,0.0,0.0,3.8076,-0.58061
-0.15001,27871.22,3.8688,0.95482,0.0,0.0,3.827,-0.58036
-0.15001,27991.218,3.8668,0.95982,0.0,2.8059,3.8463,-0.58006
-0.15001,28111.219,3.8652,0.96482,0.0,0.0,3.8656,-0.57982
-0.15001,28231.219,3.8631,0.96982,0.0,0.0,3.885,-0.5795
-0.15001,28351.219,3.8612,0.97482,,,3.9043,-0.57922
-0.15001,28471.219,3.8596,0.97982,,,3.9236,-0.57898
-0.15001,28591.219,3.8575,0.98482,,2.6854,3.9429,-0.57866
-0.15,28711.218,3.8558,0.98982,,0.0,3.9621,-0.57837
-0.15001,28831.217,3.8538,0.99482,,,3.9814,-0.57811
-0.15,28951.219,3.8521,0.99982,0.37247,2.6927,4.0007,-0.57782
-0.15002,29071.218,3.85,1.0048,0.0,0.0,4.0199,-0.57758
-0.15,29191.218,3.8482,1.0098,0.0,0.0,4.0392,-0.57723
-0.15001,29311.219,3.8465,1.0148,0.0,,4.0584,-0.57701
-0.15001,29431.22,3.8445,1.0198,0.0,,4.0776,-0.57671
-0.15001,29551.218,3.8429,1.0248,0.36827,,4.0968,-0.57647
-0.15001,29671.218,3.841,1.0298,0.0,,4.1161,-0.57619
-0.15,29791.218,3.8393,1.0348,0.0,,4.1353,-0.5759
-0.15001,29911.218,3.8375,1.0398,0.0,2.8137,4.1544,-0.57566
-0.15001,30031.218,3.8356,1.0448,,0.0,4.1736,-0.57538
-0.15001,30151.218,3.834,1.0498,,0.0,4.1928,-0.57514
-0.15001,30271.218,3.8321,1.0548,0.35605,2.8152,4.212,-0.57485
-0.15001,30391.218,3.8305,1.0598,0.0,0.0,4.2311,-0.57461
-0.15002,30511.219,3.8288,1.0648,0.0,0.0,4.2503,-0.5744
-0.15001,30631.219,3.8269,1.0698,0.0,2.8931,4.2694,-0.57407
-0.15001,30751.219,3.8251,1.0748,0.0,0.0,4.2885,-0.5738
-0.15001,30871.219,3.8236,1.0798,0.0,0.0,4.3076,-0.57358
-0.15001,30991.218,3.8217,1.0848,,2.8876,4.3268,-0.57329
-0.15002,31111.219,3.82,1.0898,,0.0,4.3459,-0.57308
-0.15001,31231.218,3.8184,1.0948,,0.0,4.365,-0.5728
-0.15001,31351.219,3.8166,1.0998,,,4.384,-0.57253
-0.15001,31471.219,3.815,1.1048,,,4.4031,-0.57229
-0.15001,31591.219,3.8132,1.1098,,,4.4222,-0.57202
-0.15001,31711.218,3.8117,1.1148,,,4.4412,-0.57179
-0.15,31831.219,3.8098,1.1198,,,4.4603,-0.57147
-0.15001,31951.218,3.8082,1.1248,,,4.4793,-0.57127
-0.15001,32071.218,3.8066,1.1298,,,4.4984,-0.57103
-0.15001,32191.219,3.8047,1.1348,,,4.5174,-0.57074
-0.15001,32311.218,3.8031,1.1398,,,4.5364,-0.5705
-0.15,32431.218,3.8016,1.1448,,,4.5554,-0.57024
-0.15001,32551.218,3.7997,1.1498,,,4.5744,-0.56999
-0.15001,32671.218,3.7982,1.1548,,,4.5934,-0.56977
-0.15001,32791.219,3.7963,1.1598,,,4.6124,-0.56948
-0.15001,32911.219,3.7948,1.1648,,,4.6314,-0.56926
-0.15001,33031.218,3.7932,1.1698,,,4.6504,-0.56902
-0.15001,33151.218,3.7914,1.1748,,,4.6693,-0.56875
-0.15002,33271.218,3.7899,1.1798,,,4.6883,-0.56856
-0.15001,33391.219,3.7881,1.1848,,,4.7072,-0.56825
-0.15001,33511.219,3.7866,1.1898,,,4.7261,-0.56803
-0.15,33631.219,3.7849,1.1948,,,4.7451,-0.56774
-0.15,33751.219,3.7831,1.1998,,,4.764,-0.56747
-0.15002,33871.218,3.7817,1.2048,,,4.7829,-0.56733
-0.15001,33991.217,3.7798,1.2098,,,4.8018,-0.56701
-0.15001,34111.218,3.7783,1.2148,,,4.8207,-0.56678
-0.15001,34231.22,3.7766,1.2198,,,4.8396,-0.56653
-0.15,34351.219,3.7749,1.2248,,,4.8585,-0.56624
-0.15,34471.218,3.7734,1.2298,,,4.8773,-0.56601
-0.15001,34591.219,3.7715,1.2348,,,4.8962,-0.56576
-0.15001,34711.219,3.77,1.2398,,,4.915,-0.56554
-0.15002,34831.219,3.7684,1.2448,,,4.9339,-0.56534
-0.15,34951.218,3.7666,1.2498,,3.0269,4.9527,-0.56499
-0.15001,35071.219,3.7651,1.2548,,0.0,4.9715,-0.5648
-0.15,35191.217,3.7632,1.2598,,0.0,4.9904,-0.56448
-0.15001,35311.22,3.7616,1.2648,,3.0152,5.0092,-0.56428
-0.15001,35431.219,3.7601,1.2698,,0.0,5.028,-0.56405
-0.15001,35551.219,3.7583,1.2748,,0.0,5.0468,-0.56378
-0.15001,35671.221,3.7568,1.2798,,2.9956,5.0656,-0.56356
-0.15,35791.219,3.755,1.2848,,0.0,5.0843,-0.56325
-0.15001,35911.218,3.7532,1.2898,,0.0,5.1031,-0.56302
-0.15001,36031.219,3.7517,1.2948,,,5.1219,-0.56279
-0.15,36151.218,3.7498,1.2998,,,5.1406,-0.56247
-0.15001,36271.219,3.7483,1.3048,,,5.1594,-0.56228
-0.15,36391.218,3.7466,1.3098,,,5.1781,-0.56199
-0.15,36511.218,3.7448,1.3148,,,5.1968,-0.56172
-0.15,36631.218,3.7431,1.3198,,,5.2155,-0.56147
-0.15,36751.218,3.7415,1.3248,,,5.2342,-0.56123
-0.15,36871.219,3.7396,1.3298,,,5.2529,-0.56094
-0.15001,36991.218,3.7381,1.3348,,,5.2716,-0.56075
-0.15,37111.219,3.7362,1.3398,,,5.2903,-0.56043
-0.15001,37231.218,3.7346,1.3448,,,5.309,-0.56023
-0.15001,37351.218,3.7328,1.3498,,,5.3277,-0.55996
-0.15001,37471.217,3.731,1.3548,,,5.3463,-0.55969
-0.15,37591.218,3.7295,1.3598,,,5.365,-0.55943
-0.15001,37711.218,3.7276,1.3648,,,5.3836,-0.55918
-0.15,37831.219,3.7261,1.3698,,,5.4022,-0.55892
-0.15001,37951.218,3.7242,1.3748,,,5.4209,-0.55867
-0.15001,38071.218,3.7225,1.3798,0.34704,,5.4395,-0.55841
-0.15001,38191.218,3.7209,1.3848,0.0,,5.4581,-0.55817
-0.15001,38311.218,3.719,1.3898,0.0,,5.4767,-0.55789
-0.15002,38431.219,3.7175,1.3948,0.0,2.9259,5.4953,-0.5577
-0.15001,38551.218,3.7157,1.3998,0.0,0.0,5.5138,-0.55739
-0.15001,38671.219,3.7139,1.4048,0.0,0.0,5.5324,-0.55712
-0.15001,38791.218,3.7124,1.4098,0.33888,2.9548,5.551,-0.5569
-0.15,38911.218,3.7105,1.4148,0.0,0.0,5.5695,-0.55658
-0.15001,39031.218,3.709,1.4198,0.0,0.0,5.5881,-0.55639
-0.15001,39151.218,3.7072,1.4248,0.0,2.9582,5.6066,-0.55612
-0.15,39271.218,3.7055,1.4298,0.0,0.0,5.6252,-0.55583
-0.15,39391.218,3.704,1.4348,0.0,0.0,5.6437,-0.5556
-0.15001,39511.218,3.7022,1.4398,0.33322,3.0251,5.6622,-0.55537
-0.15,39631.218,3.7007,1.4448,0.0,0.0,5.6807,-0.55511
-0.15,39751.218,3.699,1.4498,0.0,0.0,5.6992,-0.55485
-0.15004,39871.218,3.6973,1.4548,0.0,3.0694,5.7177,-0.55474
-0.15,39991.219,3.6959,1.4598,0.0,0.0,5.7362,-0.55439
-0.15001,40111.219,3.6941,1.4648,0.0,0.0,5.7546,-0.55415
-0.15001,40231.218,3.6927,1.4698,0.32383,0.0,5.7731,-0.55394
-0.15002,40351.218,3.6911,1.4748,0.0,,5.7916,-0.55374
-0.15,40471.218,3.6894,1.4798,0.0,,5.81,-0.55341
-0.15,40591.218,3.688,1.4848,0.0,,5.8285,-0.5532
-0.15001,40711.218,3.6863,1.4898,0.0,,5.8469,-0.55298
-0.15,40831.218,3.6848,1.4948,0.0,,5.8653,-0.55272
-0.15001,40951.219,3.6834,1.4998,0.0,,5.8837,-0.55255
-0.15001,41071.22,3.6817,1.5048,,3.2872,5.9021,-0.55229
-0.15001,41191.218,3.6804,1.5098,,0.0,5.9205,-0.5521
-0.15,41311.219,3.679,1.5148,,0.0,5.9389,-0.55185
-0.15002,41431.218,3.6773,1.5198,,0.0,5.9573,-0.55167
-0.15001,41551.218,3.6761,1.5248,,,5.9757,-0.55145
-0.15,41671.219,3.6744,1.5298,,,5.9941,-0.55116
-0.15001,41791.219,3.673,1.5348,,,6.0125,-0.55099
-0.15001,41911.219,3.6718,1.5398,,,6.0308,-0.55081
-0.15001,42031.218,3.6702,1.5448,,,6.0492,-0.55057
-0.15,42151.218,3.6689,1.5498,,,6.0675,-0.55034
-0.15001,42271.218,3.6674,1.5548,,,6.0858,-0.55015
-0.15001,42391.217,3.6661,1.5598,,,6.1042,-0.54995
-0.15001,42511.218,3.6649,1.5648,,,6.1225,-0.54977
-0.15,42631.218,3.6633,1.5698,,,6.1408,-0.5495
-0.15001,42751.218,3.6622,1.5748,0.27513,3.6804,6.1591,-0.54937
-0.15001,42871.218,3.6606,1.5798,0.0,0.0,6.1774,-0.54913
-0.15001,42991.218,3.6594,1.5848,0.0,0.0,6.1957,-0.54895
-0.15,43111.219,3.6582,1.5898,0.0,0.0,6.214,-0.54873
-0.15,43231.218,3.6567,1.5948,0.0,3.7972,6.2323,-0.54851
-0.15001,43351.218,3.6556,1.5998,0.0,0.0,6.2506,-0.54838
-0.15001,43471.218,3.6542,1.6048,0.0,0.0,6.2689,-0.54817
-0.15001,43591.218,3.6531,1.6098,0.0,0.0,6.2871,-0.548
-0.15001,43711.218,3.6517,1.6148,,,6.3054,-0.54779
-0.15,43831.218,3.6504,1.6198,,,6.3236,-0.54756
-0.15001,43951.219,3.6493,1.6248,,,6.3419,-0.54743
-0.15,44071.218,3.6479,1.6298,,,6.3601,-0.54719
-0.15001,44191.218,3.6468,1.6348,,,6.3784,-0.54706
-0.15,44311.218,3.6456,1.6398,,,6.3966,-0.54684
-0.14999,44431.219,3.6442,1.6448,,0.0,6.4148,-0.54659
-0.15001,44551.219,3.6432,1.6498,,0.0,6.433,-0.54652
-0.15,44671.219,3.6418,1.6548,,4.0992,6.4512,-0.54627
-0.15,44791.218,3.6406,1.6598,,0.0,6.4695,-0.54609
-0.15001,44911.218,3.6396,1.6648,,0.0,6.4877,-0.54598
-0.15001,45031.219,3.6382,1.6698,,0.0,6.5058,-0.54577
-0.15,45151.219,3.637,1.6748,,4.1486,6.524,-0.54555
-0.15,45271.218,3.636,1.6797,,0.0,6.5422,-0.5454
-0.15001,45391.219,3.6346,1.6847,,0.0,6.5604,-0.54523
-0.15001,45511.218,3.6336,1.6897,,0.0,6.5786,-0.54508
-0.15001,45631.218,3.6322,1.6947,0.23873,4.2499,6.5967,-0.54487
-0.15,45751.218,3.6311,1.6997,0.0,,6.6149,-0.54467
-0.15,45871.219,3.6301,1.7047,0.0,,6.633,-0.54452
-0.15001,45991.221,3.6287,1.7097,0.0,,6.6512,-0.54434
-0.15001,46111.219,3.6276,1.7147,0.0,,6.6693,-0.54418
-0.15,46231.219,3.6265,1.7197,0.0,,6.6874,-0.54398
-0.15001,46351.218,3.6252,1.7247,0.0,,6.7056,-0.54382
-0.15001,46471.219,3.6242,1.7297,0.0,,6.7237,-0.54367
-0.15001,46591.218,3.6228,1.7347,0.0,,6.7418,-0.54346
-0.15,46711.219,3.6218,1.7397,,,6.7599,-0.54327
-0.14999,46831.219,3.6206,1.7447,,,6.778,-0.54305
-0.15,46951.218,3.6193,1.7497,,,6.7961,-0.5429
-0.15,47071.218,3.6182,1.7547,,,6.8142,-0.54273
-0.15001,47191.22,3.6168,1.7597,,4.1862,6.8323,-0.54256
-0.15002,47311.218,3.6157,1.7647,,0.0,6.8504,-0.54243
-0.15001,47431.219,3.6144,1.7697,,0.0,6.8684,-0.5422
-0.14999,47551.218,3.6131,1.7747,,0.0,6.8865,-0.54193
-0.15001,47671.218,3.6119,1.7797,,3.9833,6.9046,-0.54182
-0.15,47791.218,3.6105,1.7847,,0.0,6.9226,-0.54158
-0.15002,47911.219,3.6095,1.7897,,0.0,6.9407,-0.5415
-0.15001,48031.218,3.608,1.7947,,0.0,6.9587,-0.54124
-0.15001,48151.218,3.6069,1.7997,,4.0082,6.9767,-0.54107
-0.15,48271.219,3.6057,1.8047,,0.0,6.9948,-0.54086
-0.15001,48391.219,3.6043,1.8097,,0.0,7.0128,-0.54068
-0.15,48511.219,3.6032,1.8147,,0.0,7.0308,-0.54048
-0.15001,48631.218,3.6018,1.8197,,3.9345,7.0488,-0.54031
-0.15001,48751.221,3.6005,1.8247,,0.0,7.0668,-0.54011
-0.15001,48871.219,3.5994,1.8297,,0.0,7.0848,-0.53995
-0.15,48991.219,3.598,1.8347,,0.0,7.1028,-0.5397
-0.15,49111.218,3.5968,1.8397,,3.9324,7.1208,-0.53952
-0.15001,49231.218,3.5955,1.8447,,0.0,7.1388,-0.53936
-0.15,49351.218,3.5941,1.8497,,0.0,7.1568,-0.53912
-0.15001,49471.218,3.593,1.8547,,0.0,7.1747,-0.53899
-0.15,49591.218,3.5915,1.8597,,3.9174,7.1927,-0.53873
-0.15001,49711.22,3.5903,1.8647,,0.0,7.2106,-0.53858
-0.15,49831.219,3.5888,1.8697,,0.0,7.2286,-0.53832
-0.15,49951.218,3.5876,1.8747,,0.0,7.2465,-0.53814
-0.15001,50071.218,3.5864,1.8797,,,7.2644,-0.538
-0.15,50191.218,3.5848,1.8847,,,7.2824,-0.53772
-0.15,50311.219,3.5836,1.8897,,,7.3003,-0.53754
-0.15,50431.219,3.5821,1.8947,0.26664,,7.3182,-0.53732
-0.15001,50551.218,3.5809,1.8997,0.0,,7.3361,-0.53717
-0.15,50671.218,3.5795,1.9047,0.0,,7.354,-0.53693
-0.15001,50791.218,3.5781,1.9097,0.0,,7.3719,-0.53675
-0.15,50911.219,3.5769,1.9147,0.0,3.7166,7.3898,-0.53654
-0.15001,51031.218,3.5754,1.9197,0.0,0.0,7.4077,-0.53635
-0.15002,51151.219,3.5742,1.9247,0.0,0.0,7.4255,-0.5362
-0.15001,51271.218,3.5727,1.9297,0.0,0.0,7.4434,-0.53594
-0.15,51391.218,3.5714,1.9347,,,7.4613,-0.53571
-0.15001,51511.218,3.57,1.9397,,,7.4791,-0.53554
-0.15,51631.221,3.5684,1.9447,,,7.497,-0.53526
-0.15001,51751.218,3.5671,1.9497,,3.5289,7.5148,-0.5351
-0.15002,51871.218,3.5657,1.9547,,0.0,7.5326,-0.53493
-0.15,51991.218,3.5641,1.9597,,0.0,7.5504,-0.53462
-0.15002,52111.219,3.5628,1.9647,,0.0,7.5683,-0.53449
-0.15001,52231.218,3.5612,1.9697,,,7.5861,-0.53422
-0.15001,52351.218,3.5598,1.9747,,,7.6039,-0.53401
-0.15001,52471.219,3.5583,1.9797,,,7.6217,-0.53378
-0.15001,52591.218,3.5567,1.9847,,3.3427,7.6394,-0.53354
-0.15001,52711.218,3.5554,1.9897,,0.0,7.6572,-0.53335
-0.15001,52831.219,3.5537,1.9947,,0.0,7.675,-0.53309
-0.15001,52951.218,3.5523,1.9997,0.30161,0.0,7.6928,-0.53288
-0.15,53071.218,3.5507,2.0047,0.0,,7.7105,-0.53261
-0.15001,53191.219,3.5491,2.0097,0.0,,7.7283,-0.5324
-0.15001,53311.218,3.5477,2.0147,0.0,,7.746,-0.53219
-0.15,53431.218,3.546,2.0197,0.0,,7.7637,-0.5319
-0.15,53551.218,3.5446,2.0247,0.0,,7.7815,-0.53169
-0.15001,53671.219,3.5429,2.0297,0.0,,7.7992,-0.53147
-0.15001,53791.219,3.5413,2.0347,,3.2221,7.8169,-0.53123
-0.15001,53911.219,3.5399,2.0397,,0.0,7.8346,-0.53102
-0.15001,54031.219,3.5382,2.0447,,0.0,7.8523,-0.53077
-0.15001,54151.218,3.5367,2.0497,,3.1687,7.87,-0.53054
-0.15,54271.219,3.5351,2.0547,,0.0,7.8876,-0.53027
-0.15002,54391.22,3.5334,2.0597,,0.0,7.9053,-0.53008
-0.15002,54511.218,3.532,2.0647,0.31656,3.1447,7.923,-0.52987
-0.15001,54631.218,3.5302,2.0697,0.0,0.0,7.9406,-0.52957
-0.15001,54751.218,3.5287,2.0747,0.0,0.0,7.9583,-0.52934
-0.15,54871.218,3.5269,2.0797,0.0,3.0815,7.9759,-0.52904
-0.15001,54991.22,3.5253,2.0847,0.0,0.0,7.9935,-0.52883
-0.15001,55111.219,3.5238,2.0897,0.0,0.0,8.0112,-0.52861
-0.15002,55231.218,3.522,2.0947,0.32586,3.0572,8.0288,-0.52837
-0.15,55351.218,3.5205,2.0997,0.0,,8.0464,-0.52808
-0.15001,55471.218,3.5187,2.1047,0.0,,8.064,-0.52784
-0.15,55591.218,3.5171,2.1097,0.0,2.9762,8.0816,-0.52757
-0.15002,55711.219,3.5155,2.1147,0.0,0.0,8.0991,-0.5274
-0.15001,55831.218,3.5136,2.1197,0.0,0.0,8.1167,-0.52708
-0.15001,55951.218,3.5121,2.1247,0.33621,2.9373,8.1343,-0.52685
-0.15,56071.218,3.5102,2.1297,0.0,0.0,8.1518,-0.52653
-0.15001,56191.22,3.5084,2.1347,0.0,0.0,8.1694,-0.5263
-0.15001,56311.22,3.5068,2.1397,0.0,2.8833,8.1869,-0.52606
-0.15001,56431.218,3.505,2.1447,0.0,0.0,8.2044,-0.52579
-0.15001,56551.218,3.5031,2.1497,0.0,0.0,8.2219,-0.5255
-0.15,56671.219,3.5015,2.1547,,2.8082,8.2395,-0.52523
-0.15,56791.218,3.4995,2.1597,,0.0,8.257,-0.52493
-0.15,56911.218,3.4977,2.1647,,0.0,8.2745,-0.52466
-0.15001,57031.221,3.496,2.1697,,,8.2919,-0.52443
-0.15002,57151.218,3.494,2.1747,,,8.3094,-0.52417
-0.15,57271.218,3.4922,2.1797,0.36552,,8.3269,-0.52383
-0.15001,57391.219,3.4904,2.1847,0.0,,8.3443,-0.52359
-0.15001,57511.218,3.4884,2.1897,0.0,,8.3618,-0.52329
-0.15,57631.219,3.4867,2.1947,0.0,2.6915,8.3792,-0.52301
-0.15001,57751.219,3.4846,2.1997,0.0,0.0,8.3966,-0.52272
-0.15001,57871.219,3.4829,2.2047,0.0,0.0,8.4141,-0.52247
-0.15001,57991.218,3.4808,2.2097,,,8.4315,-0.52215
-0.15001,58111.219,3.4789,2.2147,,,8.4489,-0.52187
-0.15001,58231.218,3.4771,2.2197,,2.5825,8.4662,-0.5216
-0.15,58351.218,3.475,2.2247,,0.0,8.4836,-0.52125
-0.15001,58471.218,3.4732,2.2297,,0.0,8.501,-0.52101
-0.15001,58591.218,3.471,2.2347,,2.5445,8.5183,-0.52068
-0.15,58711.217,3.4691,2.2397,,0.0,8.5357,-0.52037
-0.15,58831.219,3.4672,2.2447,,0.0,8.553,-0.52008
-0.15,58951.22,3.465,2.2497,,,8.5704,-0.51975
-0.14999,59071.218,3.4632,2.2547,,,8.5877,-0.51945
-0.15001,59191.219,3.4611,2.2597,,,8.605,-0.5192
-0.15001,59311.219,3.459,2.2647,,0.0,8.6223,-0.51888
-0.14999,59431.218,3.4571,2.2697,,2.4773,8.6396,-0.51853
-0.15002,59551.219,3.4549,2.2747,,0.0,8.6569,-0.5183
-0.15001,59671.218,3.4531,2.2797,,0.0,8.6741,-0.518
-0.15002,59791.218,3.451,2.2847,,,8.6914,-0.51772
-0.15001,59911.218,3.4489,2.2897,,,8.7086,-0.51737
-0.15,60031.219,3.4472,2.2947,,,8.7259,-0.51708
-0.15,60151.218,3.4451,2.2997,,,8.7431,-0.51677
-0.15001,60271.22,3.4433,2.3047,,,8.7603,-0.51653
-0.15001,60391.219,3.4415,2.3097,,2.6677,8.7775,-0.51626
-0.15001,60511.218,3.4396,2.3147,,0.0,8.7947,-0.51597
-0.15,60631.217,3.438,2.3197,,0.0,8.8119,-0.5157
-0.15001,60751.219,3.4361,2.3247,,,8.8291,-0.51545
-0.15,60871.218,3.4345,2.3297,,,8.8463,-0.51518
-0.15001,60991.22,3.4328,2.3347,,,8.8634,-0.51495
-0.15001,61111.218,3.4311,2.3397,,,8.8806,-0.5147
-0.15001,61231.219,3.4296,2.3447,,,8.8977,-0.51447
-0.15001,61351.218,3.4279,2.3497,,,8.9149,-0.51422
-0.15,61471.218,3.4264,2.3547,,3.118,8.932,-0.51396
-0.15001,61591.218,3.4248,2.3597,,0.0,8.9491,-0.51375
-0.15,61711.218,3.4231,2.3647,,0.0,8.9663,-0.51347
-0.15,61831.219,3.4218,2.3697,,3.2206,8.9834,-0.51327
-0.15001,61951.218,3.4201,2.3747,,0.0,9.0005,-0.51305
-0.15,62071.219,3.4188,2.3797,,0.0,9.0176,-0.51282
-0.15,62191.218,3.4171,2.3847,,0.0,9.0347,-0.51257
-0.15,62311.218,3.4155,2.3897,,,9.0517,-0.51233
-0.14999,62431.22,3.4142,2.3947,,,9.0688,-0.5121
-0.15,62551.218,3.4125,2.3997,0.30477,,9.0859,-0.51188
-0.15002,62671.218,3.411,2.4047,,,9.1029,-0.51172
-0.15002,62791.218,3.4095,2.4097,,,9.12,-0.51149
-0.15001,62911.219,3.4078,2.4147,,,9.137,-0.5112
-0.15001,63031.218,3.4063,2.4197,,3.1771,9.154,-0.51098
-0.15001,63151.219,3.4045,2.4247,,0.0,9.1711,-0.51071
-0.15,63271.218,3.4031,2.4297,,0.0,9.1881,-0.51047
-0.15,63391.219,3.4014,2.4347,,3.0551,9.2051,-0.51021
-0.15,63511.22,3.3996,2.4397,,0.0,9.2221,-0.50994
-0.15001,63631.219,3.3979,2.4447,,0.0,9.2391,-0.50972
-0.15001,63751.218,3.396,2.4497,,,9.2561,-0.50943
-0.15,63871.218,3.3943,2.4547,,,9.273,-0.50915
-0.15001,63991.219,3.3924,2.4597,0.35476,,9.29,-0.50889
-0.15001,64111.218,3.3903,2.4647,0.0,,9.307,-0.50858
-0.15001,64231.22,3.3885,2.4697,0.0,,9.3239,-0.50831
-0.15001,64351.219,3.3863,2.4747,0.0,2.496,9.3408,-0.50798
-0.15,64471.218,3.3843,2.4797,0.0,0.0,9.3578,-0.50765
-0.15002,64591.218,3.382,2.4847,0.41346,2.2954,9.3747,-0.50737
-0.15001,64711.219,3.3796,2.4897,0.0,0.0,9.3916,-0.50697
-0.15001,64831.219,3.3773,2.4947,0.0,0.0,9.4085,-0.50663
-0.15001,64951.22,3.3746,2.4996,0.0,,9.4254,-0.50622
-0.15,65071.218,3.3721,2.5046,0.49059,,9.4422,-0.50582
-0.15,65191.219,3.3692,2.5096,0.0,,9.4591,-0.50538
-0.15,65311.218,3.3664,2.5146,0.0,1.751,9.4759,-0.50496
-0.15,65431.218,3.3633,2.5196,0.0,0.0,9.4927,-0.5045
-0.15,65551.218,3.3598,2.5246,,,9.5095,-0.50397
-0.15001,65671.219,3.3565,2.5296,,1.4811,9.5263,-0.50351
-0.15002,65791.219,3.3529,2.5346,,0.0,9.5431,-0.503
-0.15001,65911.218,3.3489,2.5396,,,9.5598,-0.50237
-0.15,66031.218,3.345,2.5446,,1.2801,9.5766,-0.50175
-0.15002,66151.219,3.3406,2.5496,0.80409,1.1795,9.5933,-0.50116
-0.15001,66271.218,3.3362,2.5546,0.0,1.1263,9.61,-0.50046
-0.15,66391.219,3.3313,2.5596,0.91712,1.042,9.6267,-0.4997
-0.15001,66511.218,3.3261,2.5646,0.0,0.99791,9.6433,-0.49895
-0.15,66631.219,3.3209,2.5696,1.0314,0.93689,9.6599,-0.49814
-0.15,66751.22,3.3151,2.5746,0.0,0.8931,9.6765,-0.49727
-0.15001,66871.219,3.3092,2.5796,,0.85228,9.6931,-0.49641
-0.15001,66991.218,3.3029,2.5846,,,9.7096,-0.49547
-0.15001,67111.218,3.2961,2.5896,,0.73708,9.7261,-0.49445
-0.15002,67231.218,3.2892,2.5946,1.3559,0.72205,9.7425,-0.49345
-0.15001,67351.218,3.2817,2.5996,1.4602,0.66622,9.759,-0.49229
-0.15001,67471.218,3.274,2.6046,0.0,0.64815,9.7754,-0.49113
-0.15002,67591.218,3.2655,2.6096,,0.58874,9.7917,-0.48989
-0.15,67711.218,3.2564,2.6146,,0.54509,9.808,-0.48846
-0.15001,67831.219,3.2471,2.6196,,0.53967,9.8243,-0.4871
-0.15001,67951.219,3.2369,2.6246,,0.50357,9.8405,-0.48557
-0.15001,68071.218,3.2264,2.6296,,0.46865,9.8566,-0.48399
-0.15,68191.218,3.2156,2.6346,,0.44824,9.8727,-0.48234
-0.15,68311.219,3.204,2.6396,,0.43678,9.8888,-0.4806
-0.15002,68431.218,3.192,2.6446,2.4084,0.41589,9.9048,-0.47886
-0.15001,68551.22,3.1795,2.6496,2.5055,0.39653,9.9207,-0.47696
-0.15,68671.219,3.1663,2.6546,2.5979,0.37312,9.9365,-0.47495
-0.15001,68791.218,3.1523,2.6596,2.8101,0.36243,9.9523,-0.47288
-0.15001,68911.218,3.138,2.6646,2.8717,0.34295,9.9681,-0.47073
-0.15001,69031.219,3.1226,2.6696,,0.32368,9.9837,-0.46842
-0.15001,69151.219,3.1066,2.6746,3.191,0.30846,9.9993,-0.46602
-0.15,69271.22,3.0896,2.6796,3.3972,0.29026,10.015,-0.46344
-0.15001,69391.22,3.0715,2.6846,3.6384,0.27437,10.03,-0.46076
-0.15001,69511.219,3.0526,2.6896,,0.2595,10.045,-0.45792
-0.15001,69631.219,3.0322,2.6946,4.0964,0.24218,10.061,-0.45486
-0.15001,69751.219,3.0104,2.6996,4.4043,0.22475,10.076,-0.45159
-0.15001,69871.219,2.9872,2.7046,4.6876,0.2123,10.091,-0.44811
-0.15,69991.219,2.9619,2.7096,5.1538,0.19326,10.106,-0.44429
-0.15001,70111.218,2.9346,2.7146,5.5115,0.17498,10.12,-0.44022
-0.15001,70231.218,2.9047,2.7196,6.0259,0.16101,10.135,-0.43573
-0.15001,70351.219,2.871,2.7246,7.0234,0.1398,10.149,-0.43068
-0.15001,70471.218,2.8311,2.7296,8.6457,0.1138,10.164,-0.42469
-0.15001,70591.218,2.7802,2.7346,11.13,0.089218,10.178,-0.41706
-0.15001,70711.217,2.7182,2.7396,13.025,0.076449,10.191,-0.40776
-0.15001,70831.218,2.6506,2.7446,13.894,0.071408,10.205,-0.39762
-0.15001,70951.219,2.5798,2.7496,14.306,0.069979,10.218,-0.387
-0.15001,71071.219,2.5089,2.7546,14.125,0.071293,10.231,-0.37636
-0.14998,71086.394,2.5,2.7552,13.949,0.071232,10.232,-0.37495