File: Data/monotonic_segments/Cycle 745_charge.csv
Current(A),Test_Time(s),Voltage(V),Charge_Capacity(Ah),dV/dQ(V/Ah),dQ/dV(Ah/V),Charge_Energy(Wh),Power(W)
0.14999,1156.42,4.2002,0.03924,0.0,0.0,0.16548,0.62999
0.148,1156.43,4.2002,0.03924,0.0,0.0,0.16549,0.62163
0.14998,76509.948,3.1527,0.03999,,0.2639,0.12226,0.47284
0.14999,76569.948,3.1616,0.04249,3.7388,0.2774,0.13015,0.47421
0.14999,76629.948,3.1702,0.04499,3.5961,0.28738,0.13806,0.4755
0.14998,76689.948,3.1787,0.04749,3.4502,0.29931,0.14599,0.47674
0.14998,76749.949,3.1869,0.04999,3.3364,0.30478,0.15395,0.47797
0.14998,76809.949,3.1948,0.05248,3.1953,0.31647,0.16192,0.47916
0.14998,76869.948,3.2024,0.05498,,0.32408,0.16992,0.4803
0.14998,76929.95,3.2098,0.05748,3.0719,0.33573,0.17793,0.48141
0.14998,76989.948,3.2172,0.05998,2.9605,0.34017,0.18596,0.48252
0.14999,77049.948,3.2242,0.06248,2.8523,0.35579,0.19401,0.4836
0.14998,77109.947,3.231,0.06498,,0.36051,0.20207,0.48459
0.14998,77169.95,3.2376,0.06748,2.734,0.36954,0.21016,0.48558
0.14999,77229.948,3.2441,0.06998,2.6353,0.38362,0.21826,0.48658
0.14998,77289.948,3.2506,0.07248,,0.39418,0.22637,0.48752
0.14999,77349.948,3.2568,0.07498,2.5451,0.39573,0.2345,0.48849
0.14998,77409.95,3.2627,0.07748,,0.40611,0.24265,0.48934
0.14998,77469.95,3.2686,0.07998,2.4329,0.42349,0.25081,0.49022
0.14998,77529.949,3.2744,0.08247,2.3408,0.431,0.25899,0.49109
0.14998,77589.949,3.2802,0.08497,,0.44252,0.26718,0.49196
0.15,77649.948,3.2857,0.08747,2.2532,0.44836,0.27538,0.49286
0.14999,77709.948,3.291,0.08997,,0.45829,0.2836,0.49362
0.14998,77769.948,3.2962,0.09247,2.1637,0.4666,0.29183,0.49436
0.14998,77829.95,3.3013,0.09497,,0.47952,0.30008,0.49513
0.14998,77889.949,3.3066,0.09747,2.0663,0.48856,0.30833,0.49592
0.14997,77949.95,3.3115,0.09997,,0.49728,0.3166,0.49663
0.14998,78009.95,3.3163,0.10247,1.9942,0.51087,0.32489,0.49738
0.14998,78069.948,3.321,0.10497,,0.51692,0.33318,0.49808
0.14997,78129.949,3.3256,0.10747,1.9011,0.53375,0.34148,0.49874
0.14999,78189.95,3.3303,0.10996,,0.54438,0.3498,0.49951
0.14998,78249.948,3.3347,0.11246,1.8212,0.5608,0.35813,0.50014
0.14998,78309.949,3.3389,0.11496,,0.56913,0.36647,0.50077
0.14998,78369.95,3.3432,0.11746,1.7295,,0.37482,0.50141
0.14999,78429.948,3.3474,0.11996,,0.58647,0.38318,0.50208
0.14998,78489.948,3.3515,0.12246,0.0,0.60364,0.39155,0.50266
0.14998,78549.948,3.3554,0.12496,1.6354,0.62281,0.39993,0.50324
0.14998,78609.949,3.3591,0.12746,,0.65155,0.40832,0.5038
0.14999,78669.949,3.3628,0.12996,1.5147,,0.41672,0.50439
0.14998,78729.949,3.3663,0.13246,,0.68191,0.42513,0.50488
0.14998,78789.949,3.3698,0.13496,,0.71601,0.43355,0.5054
0.15,78849.949,3.3729,0.13745,1.3358,,0.44197,0.50594
0.14999,78909.948,3.3758,0.13995,,0.7912,0.4504,0.50634
0.14998,78969.949,3.3785,0.14245,0.0,0.87562,0.45884,0.50671
0.14998,79029.95,3.381,0.14495,,,0.46729,0.50708
0.14998,79089.949,3.3834,0.14745,1.0614,1.035,0.47574,0.50744
0.14998,79149.949,3.3856,0.14995,,,0.4842,0.50777
0.14999,79209.949,3.3873,0.15245,0.0,0.0,0.49267,0.50806
0.14998,79269.95,3.3892,0.15495,,1.2504,0.50113,0.50831
0.14999,79329.948,3.391,0.15745,0.0,,0.50961,0.50862
0.14998,79389.949,3.3925,0.15995,,0.0,0.51808,0.50881
0.14998,79449.948,3.394,0.16245,0.72853,1.5682,0.52656,0.50903
0.14998,79509.948,3.3952,0.16495,,,0.53505,0.50921
0.14998,79569.95,3.3964,0.16744,0.0,0.0,0.54353,0.50939
0.14998,79629.949,3.3977,0.16994,,,0.55202,0.50959
0.14998,79689.947,3.399,0.17244,0.0,1.9454,0.56051,0.50978
0.14999,79749.95,3.4001,0.17494,,,0.56901,0.50998
0.14999,79809.95,3.401,0.17744,0.0,0.0,0.57751,0.51012
0.14999,79869.948,3.402,0.17994,,,0.58601,0.51027
0.14999,79929.949,3.4032,0.18244,0.47255,0.0,0.59451,0.51045
0.14997,79989.948,3.4041,0.18494,,2.3716,0.60302,0.51051
0.14999,80049.951,3.4049,0.18744,0.0,,0.61153,0.5107
0.14999,80109.949,3.4059,0.18994,,0.0,0.62004,0.51085
0.14999,80169.948,3.4068,0.19244,0.0,,0.62855,0.51099
0.14999,80229.95,3.4078,0.19493,,0.0,0.63707,0.51114
0.14998,80289.948,3.4087,0.19743,0.0,2.722,0.64558,0.51124
0.14999,80349.948,3.4094,0.19993,,,0.6541,0.51138
0.14999,80409.948,3.4103,0.20243,0.0,0.0,0.66263,0.51151
0.14999,80469.948,3.4112,0.20493,,,0.67115,0.51165
0.14999,80529.948,3.412,0.20743,0.0,0.0,0.67968,0.51177
0.14998,80589.95,3.4128,0.20993,,,0.6882,0.51185
0.14999,80649.949,3.4134,0.21243,0.35211,3.0046,0.69673,0.51198
0.14998,80709.95,3.4143,0.21493,,,0.70527,0.51208
0.14999,80769.95,3.4152,0.21743,0.0,0.0,0.7138,0.51225
0.14998,80829.949,3.416,0.21993,,,0.72234,0.51233
0.15,80889.948,3.4166,0.22243,0.0,0.0,0.73087,0.51249
0.14998,80949.948,3.4173,0.22492,,,0.73941,0.51253
0.14998,81009.949,3.4181,0.22742,0.0,0.0,0.74795,0.51265
0.14998,81069.949,3.419,0.22992,,3.2769,0.7565,0.51278
0.14999,81129.949,3.4197,0.23242,0.0,,0.76504,0.51292
0.14999,81189.948,3.4202,0.23492,,0.0,0.77359,0.513
0.14998,81249.949,3.4209,0.23742,0.0,,0.78214,0.51307
0.14998,81309.948,3.4217,0.23992,,0.0,0.79069,0.51319
0.14998,81369.948,3.4226,0.24242,0.0,,0.79924,0.51332
0.14998,81429.949,3.4233,0.24492,0.29775,0.0,0.8078,0.51343
0.14998,81489.949,3.4238,0.24742,,3.5003,0.81635,0.5135
0.14999,81549.949,3.4244,0.24992,0.0,,0.82491,0.51363
0.14998,81609.949,3.4253,0.25242,,0.0,0.83347,0.51373
0.14998,81669.948,3.426,0.25491,0.0,,0.84203,0.51383
0.14998,81729.948,3.4266,0.25741,,0.0,0.85059,0.51392
0.14998,81789.948,3.4272,0.25991,0.0,,0.85916,0.51401
0.14998,81849.948,3.4278,0.26241,,0.0,0.86772,0.5141
0.14998,81909.948,3.4286,0.26491,0.0,3.7105,0.87629,0.51422
0.14998,81969.949,3.4293,0.26741,,,0.88486,0.51433
0.14999,82029.95,3.4299,0.26991,0.0,0.0,0.89343,0.51445
0.14998,82089.947,3.4304,0.27241,,,0.902,0.51449
0.14998,82149.949,3.4311,0.27491,0.0,0.0,0.91058,0.5146
0.14998,82209.95,3.4319,0.27741,,,0.91915,0.51472
0.14998,82269.947,3.4326,0.27991,0.0,0.0,0.92773,0.51482
0.14999,82329.949,3.433,0.2824,0.26573,,0.93631,0.51492
0.14998,82389.949,3.4336,0.2849,,3.8455,0.94489,0.51497
0.14999,82449.947,3.4343,0.2874,0.0,,0.95347,0.51511
0.14998,82509.949,3.4351,0.2899,,0.0,0.96206,0.5152
0.14998,82569.949,3.4357,0.2924,0.0,,0.97064,0.51529
0.14999,82629.949,3.4362,0.2949,,0.0,0.97923,0.5154
0.14998,82689.95,3.4369,0.2974,0.0,,0.98782,0.51547
0.14998,82749.949,3.4375,0.2999,,0.0,0.99641,0.51556
0.14998,82809.948,3.4382,0.3024,0.0,,1.005,0.51566
0.14998,82869.949,3.439,0.3049,,3.9094,1.0136,0.51578
0.14998,82929.948,3.4396,0.3074,0.0,,1.0222,0.51587
0.14999,82989.948,3.44,0.3099,,0.0,1.0308,0.51597
0.14999,83049.948,3.4407,0.31239,0.0,,1.0394,0.51607
0.14999,83109.949,3.4413,0.31489,,0.0,1.048,0.51616
0.14998,83169.948,3.4421,0.31739,0.0,,1.0566,0.51625
0.14998,83229.948,3.4428,0.31989,,0.0,1.0652,0.51635
0.14998,83289.949,3.4433,0.32239,0.25654,,1.0738,0.51643
0.14998,83349.948,3.4439,0.32489,,3.8723,1.0824,0.51652
0.14999,83409.948,3.4447,0.32739,0.0,,1.091,0.51667
0.14998,83469.949,3.4454,0.32989,,0.0,1.0996,0.51674
0.14999,83529.949,3.4461,0.33239,0.0,,1.1082,0.51688
0.14998,83589.949,3.4466,0.33489,,0.0,1.1168,0.51692
0.14999,83649.95,3.4472,0.33739,0.0,,1.1255,0.51705
0.14998,83709.95,3.4479,0.33989,,0.0,1.1341,0.51712
0.14998,83769.948,3.4487,0.34238,0.0,3.7873,1.1427,0.51724
0.14999,83829.95,3.4494,0.34488,,,1.1513,0.51738
0.14999,83889.948,3.4499,0.34738,0.0,0.0,1.1599,0.51745
0.14999,83949.948,3.4506,0.34988,,,1.1685,0.51756
0.14998,84009.948,3.4513,0.35238,0.0,0.0,1.1772,0.51763
0.14999,84069.948,3.4521,0.35488,,,1.1858,0.51778
0.14998,84129.949,3.4529,0.35738,0.0,0.0,1.1944,0.51787
0.14999,84189.949,3.4534,0.35988,0.268,3.665,1.2031,0.51798
0.14999,84249.949,3.4539,0.36238,,,1.2117,0.51805
0.14998,84309.948,3.4549,0.36488,0.0,0.0,1.2203,0.51817
0.14998,84369.947,3.4557,0.36738,,,1.229,0.51829
0.14998,84429.948,3.4564,0.36987,0.0,0.0,1.2376,0.51839
0.14998,84489.949,3.4569,0.37237,,,1.2462,0.51847
0.14998,84549.949,3.4577,0.37487,0.0,0.0,1.2549,0.51859
0.14999,84609.949,3.4585,0.37737,,3.4563,1.2635,0.51874
0.14999,84669.949,3.4593,0.37987,0.0,,1.2722,0.51886
0.14999,84729.95,3.4601,0.38237,,0.0,1.2808,0.51898
0.14998,84789.949,3.4608,0.38487,0.0,,1.2895,0.51905
0.14997,84849.949,3.4615,0.38737,,0.0,1.2981,0.51912
0.14999,84909.948,3.4622,0.38987,0.0,,1.3068,0.5193
0.14999,84969.949,3.4631,0.39237,0.29535,0.0,1.3154,0.51943
0.14998,85029.949,3.4639,0.39487,,3.2537,1.3241,0.51952
0.14998,85089.949,3.4647,0.39736,0.0,,1.3327,0.51964
0.14998,85149.948,3.4655,0.39986,,0.0,1.3414,0.51976
0.14998,85209.948,3.4662,0.40236,0.0,,1.35,0.51986
0.14998,85269.95,3.4671,0.40486,,0.0,1.3587,0.52
0.14998,85329.948,3.468,0.40736,0.0,,1.3674,0.52013
0.14998,85389.949,3.4689,0.40986,,3.0773,1.376,0.52027
0.14998,85449.95,3.4697,0.41236,0.0,,1.3847,0.52039
0.14998,85509.949,3.4704,0.41486,,0.0,1.3934,0.52049
0.14999,85569.95,3.4713,0.41736,0.0,,1.4021,0.52066
0.14999,85629.948,3.4723,0.41986,,0.0,1.4107,0.52081
0.14998,85689.95,3.4732,0.42236,0.33335,,1.4194,0.52091
0.14999,85749.949,3.4741,0.42486,,2.8801,1.4281,0.52108
0.14999,85809.949,3.4749,0.42735,0.0,,1.4368,0.5212
0.14997,85869.949,3.4758,0.42985,,0.0,1.4455,0.52127
0.14999,85929.948,3.4768,0.43235,0.0,,1.4542,0.52149
0.14999,85989.948,3.4779,0.43485,,0.0,1.4628,0.52165
0.14998,86049.949,3.4789,0.43735,0.0,2.6641,1.4715,0.52177
0.14998,86109.95,3.4796,0.43985,,,1.4802,0.52187
0.14998,86169.949,3.4806,0.44235,0.0,0.0,1.4889,0.52202
0.14998,86229.949,3.4816,0.44485,,,1.4976,0.52217
0.14999,86289.948,3.4827,0.44735,0.0,0.0,1.5063,0.52237
0.14999,86349.948,3.4837,0.44985,0.38033,2.5654,1.515,0.52252
0.14999,86409.948,3.4845,0.45235,,,1.5237,0.52264
0.14999,86469.948,3.4855,0.45484,0.0,0.0,1.5325,0.52279
0.14999,86529.95,3.4867,0.45734,,,1.5412,0.52297
0.14997,86589.95,3.4877,0.45984,0.0,0.0,1.5499,0.52305
0.14998,86649.948,3.4886,0.46234,,2.5094,1.5586,0.52322
0.14998,86709.948,3.4896,0.46484,0.0,,1.5673,0.52337
0.14999,86769.948,3.4906,0.46734,,0.0,1.576,0.52356
0.14999,86829.95,3.4917,0.46984,0.0,,1.5848,0.52372
0.14998,86889.95,3.4928,0.47234,,0.0,1.5935,0.52385
0.14998,86949.95,3.4938,0.47484,0.40267,2.4545,1.6022,0.524
0.14998,87009.948,3.4947,0.47734,,,1.611,0.52414
0.14999,87069.948,3.4957,0.47984,0.0,0.0,1.6197,0.52432
0.14998,87129.949,3.4969,0.48234,,,1.6284,0.52447
0.14999,87189.949,3.498,0.48483,0.0,0.0,1.6372,0.52467
0.14998,87249.948,3.4989,0.48733,,2.4159,1.6459,0.52477
0.14999,87309.949,3.4999,0.48983,0.0,,1.6547,0.52495
0.14998,87369.951,3.5009,0.49233,,0.0,1.6634,0.52506
0.14998,87429.949,3.5021,0.49483,0.0,,1.6722,0.52524
0.14999,87489.95,3.5032,0.49733,0.41563,0.0,1.6809,0.52544
0.14998,87549.949,3.504,0.49983,,2.3978,1.6897,0.52553
0.14998,87609.949,3.5051,0.50233,0.0,,1.6984,0.52569
0.14999,87669.948,3.5061,0.50483,,0.0,1.7072,0.52588
0.14999,87729.949,3.5073,0.50733,0.0,,1.7159,0.52606
0.14998,87789.948,3.5084,0.50983,,0.0,1.7247,0.52619
0.14999,87849.949,3.5094,0.51233,0.0,2.383,1.7335,0.52637
0.14998,87909.95,3.5103,0.51482,,,1.7423,0.52647
0.14998,87969.948,3.5113,0.51732,0.0,0.0,1.751,0.52662
0.14999,88029.948,3.5126,0.51982,,,1.7598,0.52685
0.14998,88089.948,3.5136,0.52232,0.41805,2.3924,1.7686,0.52697
0.14999,88149.95,3.5145,0.52482,,,1.7774,0.52714
0.14998,88209.948,3.5155,0.52732,0.0,0.0,1.7862,0.52725
0.14999,88269.948,3.5166,0.52982,,,1.7949,0.52745
0.14998,88329.95,3.5178,0.53232,0.0,0.0,1.8037,0.5276
0.14999,88389.949,3.5188,0.53482,,2.3879,1.8125,0.52778
0.14999,88449.948,3.5197,0.53732,0.0,,1.8213,0.52792
0.14999,88509.948,3.5208,0.53982,,0.0,1.8301,0.52808
0.14998,88569.948,3.5219,0.54232,0.0,,1.8389,0.52821
0.14998,88629.947,3.5229,0.54481,,0.0,1.8477,0.52836
0.14998,88689.95,3.5239,0.54731,0.4147,2.4368,1.8565,0.52851
0.14998,88749.95,3.5249,0.54981,,,1.8653,0.52866
0.14998,88809.95,3.5258,0.55231,0.0,0.0,1.8741,0.5288
0.14998,88869.951,3.527,0.55481,,,1.883,0.52898
0.14998,88929.948,3.5281,0.55731,0.0,0.0,1.8918,0.52914
0.14998,88989.948,3.529,0.55981,,2.4582,1.9006,0.52928
0.14998,89049.948,3.5299,0.56231,0.0,,1.9094,0.52941
0.14997,89109.948,3.5309,0.56481,,0.0,1.9182,0.52953
0.14998,89169.949,3.5319,0.56731,0.0,,1.9271,0.52971
0.14999,89229.949,3.533,0.56981,,0.0,1.9359,0.52991
0.14998,89289.948,3.5339,0.57231,0.40166,2.5405,1.9447,0.53001
0.14998,89349.949,3.5347,0.5748,,,1.9535,0.53013
0.14997,89409.95,3.5357,0.5773,0.0,0.0,1.9624,0.53025
0.14999,89469.949,3.5368,0.5798,,,1.9712,0.53048
0.14998,89529.948,3.5378,0.5823,0.0,0.0,1.9801,0.5306
0.14998,89589.948,3.5387,0.5848,,2.5663,1.9889,0.53073
0.14998,89649.948,3.5396,0.5873,0.0,,1.9977,0.53087
0.14999,89709.948,3.5406,0.5898,,0.0,2.0066,0.53105
0.14997,89769.95,3.5415,0.5923,0.0,,2.0154,0.53112
0.14998,89829.95,3.5427,0.5948,,0.0,2.0243,0.53133
0.14998,89889.948,3.5436,0.5973,0.38769,2.5975,2.0332,0.53147
0.14998,89949.95,3.5445,0.5998,,,2.042,0.5316
0.14999,90009.949,3.5454,0.6023,0.0,0.0,2.0509,0.53177
0.14998,90069.948,3.5464,0.60479,,,2.0597,0.53189
0.14998,90129.95,3.5474,0.60729,0.0,0.0,2.0686,0.53204
0.14998,90189.948,3.5484,0.60979,,,2.0775,0.53219
0.14998,90249.948,3.5493,0.61229,0.0,2.6202,2.0863,0.53232
0.14998,90309.949,3.5501,0.61479,,,2.0952,0.53244
0.14998,90369.948,3.5511,0.61729,0.0,0.0,2.1041,0.53259
0.14998,90429.948,3.5521,0.61979,,,2.113,0.53274
0.14999,90489.949,3.5531,0.62229,0.37939,0.0,2.1218,0.53293
0.14997,90549.948,3.5539,0.62479,,2.6722,2.1307,0.53298
0.14998,90609.948,3.5548,0.62729,0.0,,2.1396,0.53315
0.14998,90669.95,3.5557,0.62979,,0.0,2.1485,0.53328
0.14997,90729.95,3.5568,0.63228,0.0,,2.1574,0.53341
0.14998,90789.949,3.5576,0.63478,,0.0,2.1663,0.53357
0.14998,90849.948,3.5585,0.63728,0.0,,2.1751,0.5337
0.14999,90909.949,3.5593,0.63978,,2.7599,2.184,0.53386
0.14998,90969.948,3.5601,0.64228,0.0,,2.1929,0.53394
0.14998,91029.948,3.5612,0.64478,,0.0,2.2018,0.53411
0.14998,91089.948,3.5621,0.64728,0.0,,2.2107,0.53424
0.14998,91149.948,3.5628,0.64978,,0.0,2.2196,0.53435
0.14999,91209.95,3.5636,0.65228,0.35827,2.8197,2.2285,0.5345
0.14998,91269.949,3.5646,0.65478,,,2.2375,0.53462
0.14999,91329.949,3.5655,0.65728,0.0,0.0,2.2464,0.53479
0.14998,91389.948,3.5664,0.65978,,,2.2553,0.53489
0.14999,91449.949,3.5671,0.66227,0.0,0.0,2.2642,0.53503
0.14998,91509.948,3.568,0.66477,,,2.2731,0.53513
0.14998,91569.95,3.5688,0.66727,0.0,2.9244,2.282,0.53525
0.14998,91629.95,3.5698,0.66977,,,2.2909,0.5354
0.14998,91689.949,3.5706,0.67227,0.0,0.0,2.2999,0.53552
0.14998,91749.949,3.5713,0.67477,,,2.3088,0.53562
0.14999,91809.949,3.5721,0.67727,0.0,0.0,2.3177,0.53578
0.14998,91869.948,3.5729,0.67977,0.33934,,2.3266,0.53586
0.14997,91929.949,3.5738,0.68227,,3.0052,2.3356,0.53596
0.14998,91989.948,3.5747,0.68477,0.0,,2.3445,0.53613
0.14999,92049.948,3.5756,0.68727,,0.0,2.3534,0.5363
0.14998,92109.949,3.5762,0.68976,0.0,,2.3624,0.53636
0.14998,92169.947,3.577,0.69226,,0.0,2.3713,0.53648
0.14998,92229.948,3.5778,0.69476,0.0,,2.3803,0.5366
0.14998,92289.95,3.5787,0.69726,,3.0913,2.3892,0.53673
0.14998,92349.949,3.5796,0.69976,0.0,,2.3981,0.53687
0.14998,92409.949,3.5802,0.70226,,0.0,2.4071,0.53696
0.14998,92469.949,3.581,0.70476,0.0,,2.416,0.53708
0.14998,92529.948,3.5818,0.70726,,0.0,2.425,0.5372
0.14998,92589.947,3.5827,0.70976,0.0,,2.4339,0.53733
0.14997,92649.948,3.5835,0.71226,0.31793,0.0,2.4429,0.53742
0.14998,92709.95,3.584,0.71476,,3.1875,2.4519,0.53753
0.14998,92769.95,3.5848,0.71726,0.0,,2.4608,0.53765
0.14998,92829.949,3.5857,0.71975,,0.0,2.4698,0.53778
0.14999,92889.95,3.5865,0.72225,0.0,,2.4787,0.53794
0.14998,92949.948,3.5871,0.72475,,0.0,2.4877,0.53799
0.14998,93009.949,3.5878,0.72725,0.0,,2.4967,0.5381
0.14999,93069.949,3.5885,0.72975,,3.3083,2.5056,0.53824
0.14998,93129.95,3.5894,0.73225,0.0,,2.5146,0.53834
0.14998,93189.949,3.5902,0.73475,,0.0,2.5236,0.53846
0.14998,93249.949,3.5909,0.73725,0.0,,2.5325,0.53856
0.14998,93309.949,3.5915,0.73975,,0.0,2.5415,0.53865
0.14998,93369.949,3.5922,0.74225,0.0,,2.5505,0.53876
0.14998,93429.948,3.5931,0.74475,0.29774,0.0,2.5595,0.53889
0.14998,93489.948,3.5938,0.74724,,3.459,2.5685,0.539
0.14998,93549.949,3.5944,0.74974,0.0,,2.5774,0.53909
0.14998,93609.95,3.5951,0.75224,,0.0,2.5864,0.53919
0.14998,93669.949,3.5957,0.75474,0.0,,2.5954,0.53928
0.14999,93729.948,3.5966,0.75724,,0.0,2.6044,0.53945
0.14999,93789.95,3.5973,0.75974,0.0,,2.6134,0.53956
0.14998,93849.95,3.5978,0.76224,,0.0,2.6224,0.5396
0.14997,93909.948,3.5985,0.76474,0.0,3.6145,2.6314,0.53967
0.14997,93969.948,3.5992,0.76724,,,2.6404,0.53977
0.14999,94029.948,3.6,0.76974,0.0,0.0,2.6494,0.53996
0.14999,94089.948,3.6006,0.77224,,,2.6583,0.54005
0.14998,94149.948,3.6011,0.77473,0.0,0.0,2.6673,0.54009
0.14999,94209.948,3.6018,0.77723,,,2.6763,0.54023
0.14999,94269.948,3.6027,0.77973,0.0,0.0,2.6854,0.54037
0.14998,94329.949,3.6033,0.78223,0.27185,,2.6944,0.54042
0.14998,94389.95,3.6039,0.78473,,3.7844,2.7034,0.54051
0.14998,94449.949,3.6043,0.78723,0.0,,2.7124,0.54057
0.14998,94509.948,3.605,0.78973,,0.0,2.7214,0.54068
0.14999,94569.949,3.6058,0.79223,0.0,,2.7304,0.54083
0.14998,94629.948,3.6064,0.79473,,0.0,2.7394,0.54089
0.14998,94689.95,3.607,0.79723,0.0,,2.7484,0.54098
0.14998,94749.95,3.6075,0.79973,,0.0,2.7574,0.54105
0.15,94809.949,3.6081,0.80222,0.0,,2.7664,0.54122
0.14998,94869.949,3.6089,0.80472,,4.0102,2.7755,0.54126
0.14998,94929.948,3.6095,0.80722,0.0,,2.7845,0.54135
0.14998,94989.948,3.61,0.80972,,0.0,2.7935,0.54143
0.14998,95049.948,3.6106,0.81222,0.0,,2.8025,0.54152
0.14998,95109.949,3.6111,0.81472,,0.0,2.8115,0.54159
0.14999,95169.949,3.6119,0.81722,0.0,,2.8206,0.54175
0.14998,95229.949,3.6125,0.81972,,0.0,2.8296,0.5418
0.14998,95289.949,3.613,0.82222,0.24622,,2.8386,0.54188
0.14998,95349.949,3.6136,0.82472,,4.1584,2.8477,0.54197
0.14998,95409.948,3.6141,0.82722,0.0,,2.8567,0.54204
0.14998,95469.948,3.6149,0.82972,,0.0,2.8657,0.54216
0.14999,95529.95,3.6154,0.83221,0.0,,2.8748,0.54227
0.14998,95589.949,3.6159,0.83471,,0.0,2.8838,0.54231
0.14999,95649.95,3.6164,0.83721,0.0,,2.8928,0.54242
0.14998,95709.949,3.6171,0.83971,,0.0,2.9019,0.54249
0.14997,95769.948,3.6178,0.84221,0.0,,2.9109,0.54256
0.14999,95829.948,3.6184,0.84471,,0.0,2.92,0.54272
0.14998,95889.949,3.6187,0.84721,0.0,4.2838,2.929,0.54273
0.14999,95949.95,3.6194,0.84971,,,2.938,0.54287
0.14999,96009.949,3.62,0.85221,0.0,0.0,2.9471,0.54296
0.14998,96069.948,3.6207,0.85471,,,2.9561,0.54303
0.14999,96129.95,3.6212,0.85721,0.0,0.0,2.9652,0.54314
0.14998,96189.948,3.6217,0.8597,,,2.9742,0.54318
0.14998,96249.948,3.6222,0.8622,0.0,0.0,2.9833,0.54326
0.14998,96309.95,3.6228,0.8647,,,2.9923,0.54335
0.14999,96369.948,3.6235,0.8672,0.23202,0.0,3.0014,0.54349
0.14998,96429.948,3.6241,0.8697,,4.3694,3.0104,0.54354
0.14998,96489.949,3.6245,0.8722,0.0,,3.0195,0.5436
0.14999,96549.95,3.625,0.8747,,0.0,3.0286,0.54371
0.14998,96609.948,3.6256,0.8772,0.0,,3.0376,0.54377
0.14998,96669.949,3.6264,0.8797,,0.0,3.0467,0.54389
0.14998,96729.949,3.6269,0.8822,0.0,,3.0558,0.54396
0.14998,96789.948,3.6274,0.8847,,0.0,3.0648,0.54404
0.14998,96849.948,3.6279,0.88719,0.0,,3.0739,0.54411
0.14997,96909.948,3.6284,0.88969,,0.0,3.0829,0.54415
0.14998,96969.949,3.6291,0.89219,0.0,4.434,3.092,0.54429
0.14999,97029.948,3.6297,0.89469,,,3.1011,0.54442
0.14998,97089.95,3.6301,0.89719,0.0,0.0,3.1102,0.54444
0.14998,97149.948,3.6306,0.89969,,,3.1192,0.54452
0.14998,97209.949,3.6312,0.90219,0.0,0.0,3.1283,0.54461
0.14999,97269.947,3.6319,0.90469,,,3.1374,0.54475
0.14998,97329.949,3.6324,0.90719,0.0,0.0,3.1465,0.54479
0.14998,97389.948,3.6329,0.90969,,,3.1555,0.54486
0.14999,97449.947,3.6334,0.91219,0.22365,0.0,3.1646,0.54497
0.14998,97509.948,3.6339,0.91469,,4.516,3.1737,0.54501
0.14999,97569.949,3.6346,0.91718,0.0,,3.1828,0.54515
0.14998,97629.95,3.6352,0.91968,,0.0,3.1919,0.54521
0.14998,97689.948,3.6356,0.92218,0.0,,3.201,0.54527
0.14998,97749.949,3.6361,0.92468,,0.0,3.21,0.54534
0.14999,97809.948,3.6367,0.92718,0.0,,3.2191,0.54547
0.14998,97869.948,3.6374,0.92968,,0.0,3.2282,0.54554
0.14998,97929.949,3.6379,0.93218,0.0,,3.2373,0.54561
0.14998,97989.948,3.6383,0.93468,,0.0,3.2464,0.54567
0.14998,98049.948,3.6388,0.93718,0.0,4.5783,3.2555,0.54575
0.14999,98109.948,3.6394,0.93968,,,3.2646,0.54587
0.14998,98169.949,3.6401,0.94218,0.0,0.0,3.2737,0.54594
0.14999,98229.948,3.6406,0.94468,,,3.2828,0.54605
0.14998,98289.948,3.6412,0.94717,0.0,0.0,3.2919,0.54611
0.14998,98349.949,3.6415,0.94967,,,3.301,0.54615
0.14999,98409.95,3.642,0.95217,0.0,0.0,3.3101,0.54626
0.14999,98469.948,3.6427,0.95467,,,3.3192,0.54637
0.14997,98529.948,3.6433,0.95717,0.21767,0.0,3.3283,0.54639
0.14998,98589.948,3.6438,0.95967,,4.6198,3.3374,0.5465
0.14999,98649.948,3.6442,0.96217,0.0,,3.3465,0.54659
0.14998,98709.949,3.6448,0.96467,,0.0,3.3556,0.54665
0.14997,98769.948,3.6455,0.96717,0.0,,3.3647,0.54672
0.14998,98829.948,3.646,0.96967,,0.0,3.3738,0.54683
0.14999,98889.949,3.6465,0.97217,0.0,,3.3829,0.54694
0.14998,98949.95,3.647,0.97467,,0.0,3.3921,0.54698
0.14999,99009.948,3.6475,0.97716,0.0,,3.4012,0.54709
0.14999,99069.948,3.6482,0.97966,,0.0,3.4103,0.54719
0.14998,99129.948,3.6487,0.98216,0.0,4.6037,3.4194,0.54723
0.14998,99189.948,3.6492,0.98466,,,3.4285,0.54731
0.14998,99249.949,3.6496,0.98716,0.0,0.0,3.4376,0.54737
0.15,99309.948,3.6502,0.98966,,,3.4468,0.54753
0.14998,99369.948,3.6509,0.99216,0.0,0.0,3.4559,0.54756
0.14999,99429.949,3.6514,0.99466,,,3.465,0.54767
0.14998,99489.95,3.6519,0.99716,0.0,0.0,3.4741,0.54771
0.14998,99549.947,3.6523,0.99966,,,3.4833,0.54777
0.14998,99609.949,3.6529,1.0022,0.21691,0.0,3.4924,0.54786
0.14998,99669.948,3.6536,1.0047,,,3.5015,0.54797
0.14998,99729.949,3.6542,1.0072,0.0,4.6,3.5107,0.54806
0.14998,99789.95,3.6547,1.0097,,,3.5198,0.54813
0.14998,99849.949,3.6552,1.0122,0.0,0.0,3.5289,0.54821
0.14999,99909.948,3.6556,1.0147,,,3.5381,0.5483
0.14998,99969.95,3.6564,1.0172,0.0,0.0,3.5472,0.54839
0.14998,100029.948,3.6569,1.0197,,,3.5563,0.54846
0.14998,100089.949,3.6574,1.0222,0.0,0.0,3.5655,0.54854
0.14999,100149.951,3.6579,1.0247,,,3.5746,0.54865
0.14998,100209.949,3.6584,1.0272,0.0,0.0,3.5838,0.54869
0.14998,100269.948,3.6592,1.0297,,4.5562,3.5929,0.54881
0.14999,100329.949,3.6597,1.0321,0.0,,3.6021,0.54892
0.14998,100389.948,3.6601,1.0346,,0.0,3.6112,0.54894
0.14999,100449.948,3.6607,1.0371,0.0,,3.6204,0.54907
0.14998,100509.95,3.6612,1.0396,,0.0,3.6295,0.54911
0.14999,100569.95,3.6619,1.0421,0.0,,3.6387,0.54925
0.14997,100629.949,3.6625,1.0446,,0.0,3.6478,0.54927
0.14999,100689.948,3.663,1.0471,0.22198,,3.657,0.54941
0.14998,100749.948,3.6635,1.0496,,4.4148,3.6661,0.54945
0.14998,100809.948,3.6641,1.0521,0.0,,3.6753,0.54954
0.15,100869.949,3.6646,1.0546,,0.0,3.6844,0.54969
0.14999,100929.95,3.6654,1.0571,0.0,,3.6936,0.54977
0.14997,100989.948,3.666,1.0596,,,3.7028,0.54979
0.14998,101049.95,3.6664,1.0621,0.0,0.0,3.7119,0.54989
0.14999,101109.949,3.6669,1.0646,,,3.7211,0.55
0.14998,101169.949,3.6676,1.0671,0.0,0.0,3.7303,0.55007
0.14999,101229.949,3.6683,1.0696,,,3.7394,0.55021
0.14998,101289.949,3.6689,1.0721,0.0,4.3403,3.7486,0.55026
0.14999,101349.949,3.6693,1.0746,,,3.7578,0.55036
0.14997,101409.948,3.6699,1.0771,0.0,0.0,3.7669,0.55037
0.14998,101469.95,3.6704,1.0796,,,3.7761,0.55049
0.14998,101529.948,3.6712,1.0821,0.0,0.0,3.7853,0.55061
0.14999,101589.949,3.6718,1.0846,,,3.7945,0.55073
0.14998,101649.948,3.6723,1.0871,,0.0,3.8036,0.55077
0.14998,101709.95,3.6729,1.0896,0.0,,3.8128,0.55086
0.14998,101769.948,3.6734,1.0921,0.2334,0.0,3.822,0.55094
0.14998,101829.949,3.6742,1.0946,,4.22,3.8312,0.55106
0.14998,101889.948,3.6748,1.0971,0.0,,3.8404,0.55115
0.14997,101949.948,3.6753,1.0996,,0.0,3.8495,0.55118
0.14998,102009.949,3.6759,1.1021,0.0,,3.8587,0.55131
0.14998,102069.949,3.6765,1.1046,,0.0,3.8679,0.5514
0.14999,102129.949,3.6771,1.1071,0.0,,3.8771,0.55153
0.14998,102189.948,3.6779,1.1096,,0.0,3.8863,0.55161
0.14998,102249.948,3.6785,1.1121,0.0,,3.8955,0.5517
0.14999,102309.948,3.6789,1.1146,,4.0897,3.9047,0.5518
0.14998,102369.948,3.6795,1.1171,0.0,,3.9139,0.55185
0.14999,102429.948,3.6803,1.1196,,0.0,3.9231,0.55201
0.14997,102489.95,3.681,1.1221,0.0,,3.9323,0.55204
0.14998,102549.948,3.6816,1.1246,,0.0,3.9415,0.55217
0.14998,102609.95,3.6821,1.1271,0.0,,3.9507,0.55224
0.14998,102669.949,3.6828,1.1296,,0.0,3.9599,0.55235
0.14998,102729.948,3.6834,1.1321,0.24818,,3.9691,0.55244
0.14998,102789.949,3.6842,1.1346,,3.9434,3.9783,0.55256
0.14998,102849.949,3.6848,1.1371,0.0,,3.9875,0.55265
0.14998,102909.949,3.6853,1.1396,,0.0,3.9967,0.55272
0.14998,102969.948,3.6859,1.1421,0.0,,4.0059,0.55281
0.14997,103029.948,3.6867,1.1446,,0.0,4.0152,0.55289
0.14998,103089.95,3.6874,1.1471,0.0,,4.0244,0.55304
0.14998,103149.948,3.6881,1.1496,,0.0,4.0336,0.55314
0.14999,103209.948,3.6886,1.1521,0.0,3.8601,4.0428,0.55325
0.14999,103269.949,3.6893,1.1546,,,4.052,0.55336
0.14998,103329.949,3.6899,1.1571,0.0,0.0,4.0612,0.55341
0.14998,103389.948,3.6908,1.1596,,,4.0705,0.55355
0.14998,103449.948,3.6915,1.1621,0.0,0.0,4.0797,0.55365
0.14998,103509.948,3.692,1.1646,,,4.0889,0.55373
0.14998,103569.948,3.6926,1.1671,0.0,0.0,4.0981,0.55382
0.14998,103629.948,3.6933,1.1696,0.26471,,4.1074,0.55392
0.14998,103689.948,3.6941,1.1721,,3.6981,4.1166,0.55404
0.14998,103749.95,3.6948,1.1746,0.0,,4.1258,0.55415
0.14998,103809.948,3.6954,1.1771,,0.0,4.1351,0.55424
0.14998,103869.948,3.6961,1.1796,0.0,,4.1443,0.55434
0.14998,103929.95,3.6967,1.1821,,0.0,4.1536,0.55443
0.14998,103989.948,3.6977,1.1846,0.0,,4.1628,0.55458
0.14998,104049.949,3.6983,1.1871,,0.0,4.172,0.55467
0.14998,104109.949,3.6989,1.1896,0.0,3.5818,4.1813,0.55476
0.14998,104169.949,3.6996,1.1921,,,4.1905,0.55487
0.14997,104229.949,3.7003,1.1946,0.0,0.0,4.1998,0.55493
0.14998,104289.948,3.7012,1.1971,,,4.209,0.55511
0.14998,104349.95,3.7019,1.1996,0.0,0.0,4.2183,0.55521
0.14998,104409.948,3.7025,1.2021,,,4.2275,0.5553
0.14999,104469.949,3.7032,1.2046,0.28102,0.0,4.2368,0.55544
0.14998,104529.948,3.704,1.2071,,3.4758,4.246,0.55553
0.14997,104589.948,3.7048,1.2096,0.0,,4.2553,0.55561
0.14999,104649.948,3.7056,1.2121,,0.0,4.2646,0.5558
0.14998,104709.949,3.7061,1.2146,0.0,,4.2738,0.55584
0.14998,104769.948,3.7069,1.2171,,0.0,4.2831,0.55596
0.14998,104829.948,3.7077,1.2196,0.0,,4.2924,0.55608
0.14999,104889.95,3.7085,1.2221,,0.0,4.3016,0.55624
0.14998,104949.948,3.7093,1.2246,0.0,3.3836,4.3109,0.55632
0.14998,105009.949,3.7099,1.2271,,,4.3202,0.55641
0.14998,105069.95,3.7107,1.2296,0.0,0.0,4.3294,0.55653
0.14998,105129.948,3.7114,1.2321,,,4.3387,0.55664
0.14998,105189.95,3.7123,1.2346,0.0,0.0,4.348,0.55677
0.14999,105249.949,3.7131,1.2371,0.29905,,4.3573,0.55693
0.14999,105309.948,3.7137,1.2396,,3.2772,4.3666,0.55702
0.14999,105369.95,3.7145,1.2421,0.0,,4.3758,0.55714
0.14999,105429.948,3.7154,1.2446,,0.0,4.3851,0.55727
0.14999,105489.95,3.7163,1.2471,0.0,,4.3944,0.55741
0.14998,105549.948,3.7169,1.2496,,0.0,4.4037,0.55746
0.14997,105609.949,3.7177,1.2521,0.0,,4.413,0.55754
0.14998,105669.947,3.7184,1.2546,,0.0,4.4223,0.55769
0.14999,105729.949,3.7194,1.2571,,3.1714,4.4316,0.55787
0.14998,105789.948,3.7202,1.2596,0.0,,4.4409,0.55796
0.14998,105849.95,3.7209,1.2621,,0.0,4.4502,0.55806
0.14998,105909.949,3.7216,1.2646,0.0,,4.4595,0.55817
0.14998,105969.947,3.7224,1.2671,,0.0,4.4688,0.55829
0.14999,106029.948,3.7234,1.2696,0.31617,,4.4781,0.55847
0.14998,106089.949,3.7242,1.2721,,3.1398,4.4874,0.55856
0.14998,106149.95,3.7248,1.2746,0.0,,4.4967,0.55865
0.14998,106209.949,3.7256,1.2771,,0.0,4.506,0.55877
0.14999,106269.949,3.7264,1.2796,0.0,,4.5153,0.55892
0.14998,106329.949,3.7273,1.2821,,0.0,4.5246,0.55902
0.14998,106389.948,3.7282,1.2846,0.0,,4.534,0.55916
0.14998,106449.949,3.7291,1.2871,,3.0628,4.5433,0.55929
0.14999,106509.948,3.7298,1.2896,0.0,,4.5526,0.55943
0.14998,106569.95,3.7306,1.2921,,0.0,4.5619,0.55952
0.14999,106629.948,3.7314,1.2946,0.0,,4.5712,0.55967
0.14998,106689.95,3.7324,1.2971,,0.0,4.5806,0.55979
0.14998,106749.947,3.7332,1.2996,0.32871,,4.5899,0.55991
0.14998,106809.949,3.734,1.3021,,3.0084,4.5992,0.56003
0.14998,106869.949,3.7347,1.3046,0.0,,4.6086,0.56013
0.14998,106929.949,3.7356,1.3071,,0.0,4.6179,0.56027
0.14999,106989.948,3.7365,1.3096,0.0,,4.6272,0.56044
0.14998,107049.949,3.7375,1.3121,,0.0,4.6366,0.56055
0.14999,107109.948,3.7383,1.3146,0.0,,4.6459,0.56071
0.14998,107169.95,3.739,1.3171,,2.9557,4.6553,0.56078
0.14998,107229.948,3.7398,1.3196,0.0,,4.6646,0.5609
0.14998,107289.949,3.7407,1.3221,,0.0,4.674,0.56103
0.14998,107349.948,3.7417,1.3246,0.0,,4.6833,0.56118
0.14999,107409.948,3.7426,1.3271,,0.0,4.6927,0.56135
0.14998,107469.949,3.7434,1.3296,0.33951,,4.702,0.56144
0.14998,107529.948,3.7442,1.3321,,2.9125,4.7114,0.56156
0.14997,107589.949,3.745,1.3346,0.0,,4.7207,0.56164
0.14998,107649.951,3.7458,1.3371,,0.0,4.7301,0.5618
0.14997,107709.949,3.7469,1.3396,0.0,,4.7395,0.56192
0.14998,107769.948,3.7478,1.3421,,0.0,4.7488,0.5621
0.14998,107829.949,3.7485,1.3446,0.0,,4.7582,0.5622
0.14998,107889.949,3.7493,1.3471,,2.9101,4.7676,0.56232
0.14998,107949.948,3.7501,1.3496,0.0,,4.7769,0.56244
0.14998,108009.948,3.7512,1.3521,,0.0,4.7863,0.5626
0.14998,108069.948,3.7521,1.3546,0.0,,4.7957,0.56274
0.14998,108129.949,3.7528,1.3571,,0.0,4.8051,0.56284
0.14997,108189.949,3.7537,1.3596,0.34582,2.88,4.8145,0.56294
0.14998,108249.949,3.7545,1.3621,,,4.8238,0.5631
0.14997,108309.949,3.7555,1.3646,0.0,0.0,4.8332,0.56321
0.14998,108369.948,3.7564,1.3671,,,4.8426,0.56338
0.14998,108429.949,3.7571,1.3696,0.0,0.0,4.852,0.56349
0.14997,108489.949,3.7579,1.3721,,,4.8614,0.56357
0.14998,108549.947,3.7588,1.3746,0.0,2.8905,4.8708,0.56374
0.14997,108609.949,3.7599,1.3771,,,4.8802,0.56387
0.14998,108669.95,3.7607,1.3796,0.0,0.0,4.8896,0.56403
0.14998,108729.95,3.7614,1.3821,,,4.899,0.56413
0.14999,108789.949,3.7623,1.3846,0.0,0.0,4.9084,0.56431
0.14998,108849.951,3.7631,1.3871,0.34559,,4.9178,0.56439
0.14999,108909.949,3.7642,1.3896,,2.8914,4.9272,0.56459
0.14998,108969.949,3.765,1.3921,0.0,,4.9366,0.56467
0.14999,109029.947,3.7657,1.3946,,0.0,4.946,0.56482
0.14998,109089.948,3.7666,1.3971,0.0,,4.9554,0.56491
0.14998,109149.949,3.7675,1.3996,,0.0,4.9648,0.56505
0.14998,109209.947,3.7685,1.4021,0.0,,4.9743,0.5652
0.14998,109269.947,3.7694,1.4046,,2.8933,4.9837,0.56533
0.14997,109329.948,3.7701,1.4071,0.0,,4.9931,0.5654
0.14997,109389.95,3.7709,1.4096,,0.0,5.0025,0.56552
0.14998,109449.949,3.7718,1.4121,0.0,,5.012,0.56569
0.14998,109509.948,3.7728,1.4146,,0.0,5.0214,0.56584
0.14998,109569.949,3.7737,1.4171,0.34488,,5.0308,0.56598
0.14998,109629.948,3.7744,1.4196,,2.9152,5.0403,0.56608
0.14998,109689.949,3.7752,1.4221,0.0,,5.0497,0.5662
0.14999,109749.95,3.776,1.4246,,0.0,5.0591,0.56636
0.14998,109809.948,3.7771,1.4271,0.0,,5.0686,0.56649
0.14999,109869.949,3.778,1.4296,,0.0,5.078,0.56666
0.14998,109929.949,3.7787,1.4321,0.0,2.9217,5.0874,0.56673
0.14997,109989.949,3.7794,1.4346,,,5.0969,0.5668
0.14999,110049.948,3.7804,1.4371,0.0,0.0,5.1063,0.56702
0.14998,110109.95,3.7813,1.4396,,,5.1158,0.56712
0.14998,110169.948,3.7822,1.4421,0.0,0.0,5.1252,0.56725
0.14999,110229.95,3.7828,1.4446,,,5.1347,0.56738
0.14998,110289.947,3.7837,1.4471,0.3409,2.9483,5.1441,0.56748
0.14998,110349.949,3.7847,1.4495,,,5.1536,0.56763
0.14998,110409.95,3.7856,1.452,0.0,0.0,5.1631,0.56776
0.14999,110469.948,3.7864,1.4545,,,5.1725,0.56792
0.14999,110529.948,3.7871,1.457,0.0,0.0,5.182,0.56803
0.14998,110589.949,3.7879,1.4595,,,5.1915,0.56811
0.14998,110649.949,3.7889,1.462,0.0,2.9739,5.2009,0.56826
0.14998,110709.949,3.7898,1.4645,,,5.2104,0.56839
0.14999,110769.948,3.7905,1.467,0.0,0.0,5.2199,0.56854
0.14999,110829.95,3.7913,1.4695,,,5.2293,0.56866
0.14998,110889.948,3.7921,1.472,0.0,0.0,5.2388,0.56874
0.14999,110949.95,3.7931,1.4745,0.33617,,5.2483,0.56893
0.14999,111009.95,3.7939,1.477,,2.9778,5.2578,0.56905
0.14999,111069.949,3.7948,1.4795,0.0,,5.2673,0.56918
0.14998,111129.949,3.7954,1.482,,0.0,5.2767,0.56923
0.14998,111189.949,3.7963,1.4845,,,5.2862,0.56937
0.14999,111249.949,3.7972,1.487,0.0,0.0,5.2957,0.56954
0.14997,111309.948,3.7981,1.4895,,,5.3052,0.5696
0.14997,111369.948,3.7989,1.492,0.0,2.9963,5.3147,0.56972
0.14999,111429.948,3.7996,1.4945,,,5.3242,0.5699
0.14999,111489.95,3.8004,1.497,0.0,0.0,5.3337,0.57002
0.14997,111549.949,3.8013,1.4995,,,5.3432,0.57008
0.14999,111609.95,3.8023,1.502,0.0,0.0,5.3527,0.57031
0.14999,111669.95,3.8031,1.5045,,,5.3622,0.57043
0.14999,111729.95,3.8037,1.507,0.33274,3.0114,5.3717,0.57052
0.14999,111789.95,3.8045,1.5095,,,5.3812,0.57064
0.14998,111849.95,3.8055,1.512,0.0,0.0,5.3907,0.57075
0.14998,111909.949,3.8064,1.5145,,,5.4002,0.57088
0.14997,111969.949,3.8072,1.517,0.0,0.0,5.4097,0.57097
0.14998,112029.948,3.8079,1.5195,,,5.4193,0.57111
0.14999,112089.947,3.8087,1.522,0.0,3.0424,5.4288,0.57127
0.14998,112149.949,3.8096,1.5245,,,5.4383,0.57136
0.14998,112209.948,3.8105,1.527,0.0,0.0,5.4478,0.5715
0.14999,112269.948,3.8114,1.5295,,,5.4573,0.57167
0.14998,112329.95,3.8121,1.532,0.0,0.0,5.4669,0.57174
0.14998,112389.949,3.8128,1.5345,,,5.4764,0.57184
0.14999,112449.949,3.8136,1.537,0.32982,3.0279,5.4859,0.572
0.14998,112509.948,3.8146,1.5395,,,5.4955,0.57211
0.14998,112569.949,3.8155,1.542,0.0,0.0,5.505,0.57225
0.14997,112629.949,3.8162,1.5445,,,5.5145,0.57232
0.14998,112689.948,3.8169,1.547,0.0,0.0,5.5241,0.57246
0.14998,112749.949,3.8178,1.5495,,,5.5336,0.57259
0.14999,112809.949,3.8186,1.552,0.0,0.0,5.5432,0.57275
0.14998,112869.95,3.8196,1.5545,,3.0278,5.5527,0.57286
0.14999,112929.948,3.8204,1.557,0.0,,5.5622,0.57302
0.14999,112989.949,3.8211,1.5595,,0.0,5.5718,0.57313
0.14998,113049.949,3.8219,1.562,0.0,,5.5813,0.57321
0.14999,113109.948,3.8227,1.5645,,0.0,5.5909,0.57337
0.14998,113169.948,3.8236,1.567,0.3299,,5.6005,0.57346
0.14999,113229.948,3.8245,1.5695,,3.0523,5.61,0.57364
0.14998,113289.949,3.8253,1.572,0.0,,5.6196,0.57372
0.14998,113349.95,3.826,1.5745,,0.0,5.6291,0.57382
0.14998,113409.948,3.8268,1.577,0.0,,5.6387,0.57394
0.14998,113469.949,3.8276,1.5795,,0.0,5.6483,0.57406
0.14998,113529.95,3.8286,1.582,0.0,,5.6578,0.57421
0.14998,113589.948,3.8295,1.5845,,3.0125,5.6674,0.57435
0.14999,113649.948,3.8303,1.587,0.0,,5.677,0.57451
0.14997,113709.949,3.8309,1.5895,,0.0,5.6865,0.57452
0.14998,113769.95,3.8317,1.592,0.0,,5.6961,0.57468
0.14999,113829.95,3.8328,1.5945,,0.0,5.7057,0.57488
0.14999,113889.949,3.8336,1.597,0.33013,,5.7153,0.575
0.14998,113949.95,3.8343,1.5995,,3.0355,5.7249,0.57507
0.14998,114009.95,3.835,1.602,0.0,,5.7344,0.57517
0.15,114069.949,3.8359,1.6045,,0.0,5.744,0.57539
0.14998,114129.949,3.8369,1.607,0.0,,5.7536,0.57546
0.14998,114189.948,3.8377,1.6095,,0.0,5.7632,0.57558
0.14998,114249.949,3.8385,1.612,0.0,,5.7728,0.5757
0.14998,114309.95,3.8392,1.6145,,3.0268,5.7824,0.5758
0.14998,114369.949,3.8401,1.617,0.0,,5.792,0.57594
0.14998,114429.949,3.841,1.6195,,0.0,5.8016,0.57607
0.14999,114489.949,3.8419,1.622,0.0,,5.8112,0.57625
0.14998,114549.948,3.8425,1.6245,,0.0,5.8208,0.5763
0.14997,114609.947,3.8433,1.627,0.33074,,5.8304,0.57638
0.14998,114669.949,3.8441,1.6295,,3.0184,5.84,0.57654
0.14999,114729.948,3.8452,1.632,0.0,,5.8496,0.57674
0.14998,114789.948,3.846,1.6345,,0.0,5.8592,0.57682
0.14999,114849.949,3.8467,1.637,0.0,,5.8688,0.57697
0.14999,114909.949,3.8475,1.6395,,0.0,5.8784,0.57709
0.14998,114969.95,3.8483,1.642,0.0,,5.8881,0.57717
0.14999,115029.948,3.8491,1.6445,,2.9935,5.8977,0.57733
0.14999,115089.949,3.8501,1.647,0.0,,5.9073,0.57748
0.14998,115149.949,3.851,1.6495,,0.0,5.9169,0.57757
0.14998,115209.949,3.8518,1.652,0.0,,5.9265,0.57769
0.14998,115269.949,3.8525,1.6545,,0.0,5.9362,0.5778
0.14998,115329.948,3.8533,1.657,0.33196,,5.9458,0.57792
0.14999,115389.949,3.8543,1.6595,,3.0197,5.9554,0.57811
0.14998,115449.948,3.8552,1.662,0.0,,5.9651,0.5782
0.14998,115509.948,3.8559,1.6645,,0.0,5.9747,0.57831
0.14999,115569.949,3.8567,1.667,0.0,,5.9843,0.57847
0.14999,115629.948,3.8576,1.6695,,0.0,5.994,0.5786
0.14998,115689.948,3.8585,1.672,0.0,,6.0036,0.5787
0.14999,115749.948,3.8593,1.6745,,2.9877,6.0133,0.57886
0.14999,115809.948,3.86,1.677,0.0,,6.0229,0.57896
0.14999,115869.949,3.8608,1.6795,,0.0,6.0326,0.57908
0.14999,115929.948,3.8617,1.682,0.0,,6.0422,0.57922
0.14999,115989.949,3.8625,1.6845,,0.0,6.0519,0.57934
0.14999,116049.948,3.8635,1.687,0.33518,,6.0615,0.57949
0.14999,116109.949,3.8644,1.6895,,2.9933,6.0712,0.57962
0.14999,116169.95,3.865,1.692,0.0,,6.0808,0.57971
0.14999,116229.948,3.8659,1.6945,,0.0,6.0905,0.57985
0.14999,116289.948,3.8667,1.697,0.0,,6.1002,0.57997
0.14999,116349.948,3.8676,1.6995,,0.0,6.1098,0.5801
0.14997,116409.949,3.8686,1.702,0.0,,6.1195,0.58017
0.14998,116469.948,3.8694,1.7045,,2.9591,6.1292,0.58033
0.14999,116529.948,3.87,1.707,0.0,,6.1388,0.58046
0.14999,116589.949,3.8709,1.7095,,0.0,6.1485,0.5806
0.14999,116649.949,3.8719,1.712,0.0,,6.1582,0.58075
0.14999,116709.948,3.8728,1.7145,,0.0,6.1679,0.58088
0.14999,116769.949,3.8736,1.717,0.33555,,6.1775,0.581
0.14998,116829.949,3.8743,1.7195,,2.9937,6.1872,0.58107
0.14998,116889.948,3.8751,1.722,0.0,,6.1969,0.58119
0.14998,116949.948,3.8761,1.7245,,0.0,6.2066,0.58134
0.14998,117009.948,3.877,1.727,0.0,,6.2163,0.58147
0.14999,117069.95,3.8778,1.7295,,0.0,6.226,0.58163
0.14998,117129.949,3.8785,1.732,0.0,,6.2357,0.5817
0.14999,117189.949,3.8793,1.7345,,2.9649,6.2454,0.58186
0.14998,117249.949,3.8803,1.737,0.0,,6.2551,0.58197
0.14999,117309.95,3.8812,1.7395,,0.0,6.2648,0.58214
0.14999,117369.948,3.8819,1.742,0.0,,6.2745,0.58225
0.14998,117429.95,3.8826,1.7445,,0.0,6.2842,0.58231
0.14997,117489.948,3.8835,1.747,0.33583,,6.2939,0.58241
0.14999,117549.949,3.8845,1.7495,,3.003,6.3036,0.58264
0.14998,117609.947,3.8853,1.752,0.0,,6.3133,0.58272
0.14999,117669.95,3.8861,1.7545,,0.0,6.323,0.58288
0.14999,117729.949,3.8868,1.757,0.0,,6.3327,0.58298
0.14999,117789.95,3.8876,1.7595,,0.0,6.3424,0.5831
0.14999,117849.947,3.8885,1.762,0.0,,6.3521,0.58324
0.14998,117909.95,3.8895,1.7645,,3.0039,6.3619,0.58335
0.14998,117969.95,3.8903,1.767,0.0,,6.3716,0.58347
0.14999,118029.95,3.891,1.7695,,0.0,6.3813,0.58361
0.14998,118089.949,3.8918,1.772,0.0,,6.391,0.58369
0.14998,118149.948,3.8926,1.7745,,0.0,6.4008,0.58381
0.14997,118209.949,3.8936,1.777,0.33071,,6.4105,0.58392
0.14999,118269.949,3.8944,1.7795,,3.0299,6.4202,0.58412
0.14998,118329.949,3.8952,1.7819,0.0,,6.43,0.5842
0.14998,118389.949,3.8959,1.7844,,0.0,6.4397,0.58431
0.14999,118449.948,3.8967,1.7869,0.0,,6.4494,0.58447
0.14999,118509.95,3.8976,1.7894,,0.0,6.4592,0.5846
0.14998,118569.95,3.8984,1.7919,0.0,,6.4689,0.58468
0.14999,118629.947,3.8992,1.7944,,3.1172,6.4787,0.58484
0.14997,118689.948,3.8999,1.7969,0.0,,6.4884,0.58487
0.14998,118749.949,3.9006,1.7994,,0.0,6.4982,0.58501
0.14998,118809.949,3.9014,1.8019,0.0,,6.5079,0.58513
0.14998,118869.949,3.9024,1.8044,,0.0,6.5177,0.58528
0.14998,118929.949,3.9032,1.8069,0.0,,6.5274,0.5854
0.14998,118989.95,3.9037,1.8094,0.31824,3.2029,6.5372,0.58548
0.14997,119049.947,3.9044,1.8119,,,6.5469,0.58554
0.14997,119109.947,3.9053,1.8144,0.0,0.0,6.5567,0.58568
0.14999,119169.948,3.9061,1.8169,,,6.5665,0.58588
0.14998,119229.949,3.9068,1.8194,0.0,0.0,6.5762,0.58594
0.14998,119289.948,3.9074,1.8219,,,6.586,0.58603
0.14998,119349.949,3.9081,1.8244,0.0,0.0,6.5958,0.58614
0.14999,119409.95,3.9089,1.8269,,3.3907,6.6055,0.5863
0.14998,119469.951,3.9098,1.8294,0.0,,6.6153,0.58639
0.14997,119529.949,3.9104,1.8319,,0.0,6.6251,0.58644
0.14998,119589.95,3.9109,1.8344,0.0,,6.6348,0.58656
0.14999,119649.95,3.9117,1.8369,,0.0,6.6446,0.58672
0.14998,119709.948,3.9125,1.8394,0.0,,6.6544,0.5868
0.14999,119769.95,3.9131,1.8419,0.28693,0.0,6.6642,0.58693
0.14998,119829.948,3.9137,1.8444,,3.6392,6.674,0.58698
0.14997,119889.95,3.9143,1.8469,0.0,,6.6837,0.58703
0.14998,119949.948,3.915,1.8494,,0.0,6.6935,0.58717
0.14998,120009.948,3.9157,1.8519,,,6.7033,0.58728
0.14999,120069.95,3.9164,1.8544,0.0,,6.7131,0.58742
0.14998,120129.948,3.9171,1.8569,,0.0,6.7229,0.58749
0.14998,120189.948,3.9176,1.8594,0.0,,6.7327,0.58756
0.14999,120249.95,3.9183,1.8619,,0.0,6.7425,0.58771
0.14999,120309.948,3.9188,1.8644,0.0,3.886,6.7523,0.58778
0.14998,120369.95,3.9194,1.8669,,,6.7621,0.58783
0.14998,120429.95,3.9202,1.8694,0.0,0.0,6.7719,0.58795
0.14998,120489.948,3.9208,1.8719,,,6.7817,0.58804
0.14998,120549.948,3.9212,1.8744,0.0,0.0,6.7915,0.5881
0.14998,120609.949,3.9218,1.8769,,,6.8013,0.58819
0.14999,120669.948,3.9225,1.8794,0.0,0.0,6.8111,0.58834
0.14998,120729.95,3.9232,1.8819,0.25266,,6.8209,0.5884
0.14999,120789.949,3.9239,1.8844,,4.097,6.8307,0.58855
0.14998,120849.95,3.9243,1.8869,0.0,,6.8405,0.58857
0.14997,120909.95,3.9249,1.8894,,0.0,6.8503,0.58862
0.14999,120969.949,3.9255,1.8919,0.0,,6.8601,0.58879
0.14999,121029.949,3.9263,1.8944,,0.0,6.8699,0.58891
0.14998,121089.948,3.9269,1.8969,0.0,,6.8797,0.58896
0.14999,121149.948,3.9274,1.8994,,,6.8896,0.58907
0.14998,121209.949,3.9279,1.9019,0.0,0.0,6.8994,0.58911
0.14998,121269.949,3.9285,1.9044,,,6.9092,0.5892
0.14998,121329.949,3.9293,1.9069,0.0,4.1307,6.919,0.58932
0.14999,121389.951,3.9299,1.9094,,,6.9288,0.58945
0.14998,121449.949,3.9304,1.9119,0.0,0.0,6.9387,0.58948
0.14998,121509.95,3.931,1.9144,,,6.9485,0.58957
0.14998,121569.95,3.9316,1.9169,0.0,0.0,6.9583,0.58966
0.14998,121629.95,3.9324,1.9194,,,6.9681,0.58978
0.14998,121689.949,3.933,1.9219,0.0,0.0,6.978,0.58987
0.14998,121749.948,3.9335,1.9244,0.24369,,6.9878,0.58995
0.14998,121809.949,3.9341,1.9269,,4.032,6.9976,0.59004
0.14998,121869.948,3.9347,1.9294,0.0,,7.0075,0.59013
0.14999,121929.951,3.9355,1.9319,,0.0,7.0173,0.59029
0.15,121989.949,3.9362,1.9344,0.0,,7.0271,0.59043
0.14998,122049.949,3.9366,1.9369,,0.0,7.037,0.59041
0.14998,122109.948,3.9373,1.9394,0.0,,7.0468,0.59052
0.14996,122169.948,3.9379,1.9419,,0.0,7.0567,0.59053
0.14998,122229.951,3.9388,1.9444,0.0,,7.0665,0.59074
0.14998,122289.948,3.9394,1.9469,,3.8843,7.0764,0.59083
0.14997,122349.948,3.9401,1.9494,0.0,,7.0862,0.5909
0.14998,122409.951,3.9406,1.9519,,0.0,7.096,0.59101
0.14998,122469.949,3.9413,1.9544,0.0,,7.1059,0.59112
0.14998,122529.95,3.9421,1.9569,,0.0,7.1158,0.59124
0.14999,122589.948,3.9428,1.9594,0.0,,7.1256,0.59138
0.14999,122649.948,3.9434,1.9619,0.26309,0.0,7.1355,0.59147
0.14998,122709.949,3.944,1.9644,,3.6765,7.1453,0.59152
0.14998,122769.95,3.9447,1.9669,0.0,,7.1552,0.59163
0.14998,122829.95,3.9456,1.9694,,0.0,7.165,0.59176
0.14999,122889.949,3.9464,1.9719,0.0,,7.1749,0.59192
0.14999,122949.949,3.9471,1.9744,,0.0,7.1848,0.59203
0.14999,123009.948,3.9476,1.9769,0.0,,7.1946,0.5921
0.14999,123069.948,3.9484,1.9794,,0.0,7.2045,0.59222
0.14998,123129.949,3.9492,1.9819,0.0,3.4696,7.2144,0.5923
0.14998,123189.948,3.9501,1.9844,,,7.2242,0.59244
0.14998,123249.948,3.9508,1.9869,0.0,0.0,7.2341,0.59254
0.14998,123309.948,3.9513,1.9894,,,7.244,0.59262
0.14998,123369.95,3.9521,1.9919,0.0,0.0,7.2539,0.59274
0.14999,123429.949,3.953,1.9944,,,7.2638,0.59291
0.14998,123489.949,3.9538,1.9969,0.29333,3.3021,7.2736,0.59299
0.14998,123549.949,3.9547,1.9994,,,7.2835,0.59313
0.14998,123609.949,3.9553,2.0019,0.0,0.0,7.2934,0.59322
0.14999,123669.949,3.956,2.0044,,,7.3033,0.59336
0.14998,123729.948,3.9571,2.0069,0.0,0.0,7.3132,0.59349
0.14999,123789.949,3.9578,2.0094,,,7.3231,0.59363
0.14998,123849.95,3.9585,2.0119,0.0,,7.333,0.5937
0.14999,123909.949,3.9593,2.0144,,3.1457,7.3429,0.59386
0.14998,123969.949,3.9601,2.0169,0.0,,7.3528,0.59394
0.14997,124029.949,3.9611,2.0194,,0.0,7.3627,0.59405
0.14998,124089.948,3.962,2.0219,0.0,,7.3726,0.59422
0.14998,124149.949,3.9627,2.0244,,0.0,7.3825,0.59433
0.14999,124209.95,3.9635,2.0269,0.32465,,7.3924,0.59449
0.14999,124269.949,3.9643,2.0294,,2.9727,7.4023,0.59461
0.14998,124329.949,3.9654,2.0319,0.0,,7.4122,0.59473
0.14999,124389.949,3.9663,2.0344,,0.0,7.4221,0.59491
0.14998,124449.95,3.967,2.0369,0.0,,7.432,0.59497
0.14998,124509.949,3.9679,2.0394,,0.0,7.4419,0.59511
0.14998,124569.948,3.9689,2.0419,0.0,2.8165,7.4518,0.59526
0.14999,124629.948,3.9698,2.0444,,,7.4618,0.59543
0.14998,124689.948,3.9708,2.0469,0.0,0.0,7.4717,0.59554
0.14998,124749.949,3.9717,2.0494,,,7.4816,0.59568
0.14998,124809.95,3.9724,2.0519,0.0,0.0,7.4915,0.59578
0.14997,124869.95,3.9734,2.0544,0.3582,,7.5015,0.59589
0.14999,124929.949,3.9745,2.0569,,2.7369,7.5114,0.59614
0.14998,124989.947,3.9754,2.0594,0.0,,7.5213,0.59623
0.14999,125049.948,3.9763,2.0619,,0.0,7.5313,0.59641
0.14997,125109.949,3.9771,2.0644,0.0,,7.5412,0.59645
0.14998,125169.951,3.9782,2.0669,,0.0,7.5512,0.59665
0.14998,125229.949,3.9791,2.0694,0.0,2.6168,7.5611,0.59679
0.14998,125289.949,3.9802,2.0719,,,7.5711,0.59695
0.14998,125349.95,3.9812,2.0744,0.0,0.0,7.581,0.5971
0.14999,125409.95,3.982,2.0769,,,7.591,0.59726
0.14999,125469.95,3.983,2.0794,0.38677,0.0,7.6009,0.59741
0.14999,125529.949,3.9841,2.0819,,2.5363,7.6109,0.59758
0.14998,125589.948,3.9852,2.0844,0.0,,7.6208,0.5977
0.14999,125649.949,3.9861,2.0869,,0.0,7.6308,0.59788
0.14998,125709.949,3.987,2.0894,0.0,,7.6408,0.59797
0.14998,125769.95,3.988,2.0919,,0.0,7.6507,0.59812
0.14997,125829.95,3.9892,2.0944,0.0,2.4756,7.6607,0.59826
0.14998,125889.948,3.9903,2.0969,,,7.6707,0.59847
0.14998,125949.948,3.9911,2.0994,,0.0,7.6806,0.59859
0.14998,126009.948,3.9922,2.1019,0.0,,7.6906,0.59875
0.14999,126069.949,3.9932,2.1044,0.40582,0.0,7.7006,0.59894
0.14998,126129.948,3.9944,2.1069,,2.4139,7.7106,0.59908
0.14998,126189.948,3.9955,2.1094,0.0,,7.7206,0.59925
0.14998,126249.948,3.9964,2.1119,,0.0,7.7306,0.59938
0.14998,126309.949,3.9974,2.1144,0.0,,7.7405,0.59953
0.14998,126369.948,3.9986,2.1169,,0.0,7.7505,0.59971
0.14997,126429.948,3.9997,2.1194,0.0,2.3742,7.7605,0.59984
0.14998,126489.949,4.0007,2.1219,,,7.7705,0.60002
0.14998,126549.948,4.0017,2.1244,0.0,0.0,7.7805,0.60017
0.14998,126609.948,4.0028,2.1269,,,7.7905,0.60034
0.14998,126669.949,4.0041,2.1294,0.42638,2.3195,7.8005,0.60053
0.14999,126729.949,4.0051,2.1319,,,7.8106,0.60072
0.14998,126789.949,4.0061,2.1344,0.0,0.0,7.8206,0.60083
0.14998,126849.95,4.0071,2.1369,,,7.8306,0.60098
0.14998,126909.947,4.0082,2.1394,0.0,0.0,7.8406,0.60115
0.14998,126969.951,4.0095,2.1419,,2.3176,7.8506,0.60134
0.14998,127029.949,4.0106,2.1444,0.0,,7.8606,0.60151
0.14998,127089.948,4.0114,2.1469,,0.0,7.8707,0.60163
0.14998,127149.948,4.0126,2.1494,0.0,,7.8807,0.60181
0.14998,127209.948,4.0136,2.1519,0.43396,0.0,7.8907,0.60196
0.14998,127269.95,4.0149,2.1544,,2.29,7.9008,0.60215
0.14997,127329.95,4.016,2.1569,0.0,,7.9108,0.60228
0.14999,127389.95,4.0169,2.1594,,0.0,7.9208,0.60249
0.14998,127449.95,4.018,2.1619,0.0,,7.9309,0.60262
0.14998,127509.949,4.0191,2.1644,,2.2857,7.9409,0.60278
0.14998,127569.949,4.0202,2.1669,0.0,,7.951,0.60295
0.14998,127629.949,4.0214,2.1694,,0.0,7.961,0.60313
0.15002,127689.949,4.0225,2.1719,0.0,,7.9711,0.60346
0.15002,127749.948,4.0234,2.1744,0.43627,0.0,7.9811,0.60359
0.15002,127809.949,4.0245,2.1769,,2.2983,7.9912,0.60376
0.15002,127869.948,4.0258,2.1794,0.0,,8.0012,0.60395
0.15002,127929.948,4.0269,2.1819,,0.0,8.0113,0.60412
0.15003,127989.948,4.0278,2.1844,0.0,,8.0214,0.60429
0.15,128049.95,4.0289,2.1869,,2.3071,8.0315,0.60434
0.15002,128109.948,4.0299,2.1894,0.0,,8.0415,0.60457
0.15002,128169.948,4.0311,2.1919,,0.0,8.0516,0.60475
0.15001,128229.948,4.0322,2.1944,0.0,,8.0617,0.60487
0.15002,128289.949,4.0331,2.1969,0.4289,0.0,8.0718,0.60505
0.15001,128349.949,4.0341,2.1994,,2.3731,8.0819,0.60516
0.15002,128409.949,4.0352,2.2019,0.0,,8.0919,0.60536
0.15002,128469.949,4.0364,2.2044,,0.0,8.102,0.60554
0.15001,128529.949,4.0375,2.2069,0.0,,8.1121,0.60567
0.15001,128589.951,4.0384,2.2094,,0.0,8.1222,0.6058
0.15002,128649.948,4.0393,2.2119,0.0,2.384,8.1323,0.60598
0.15001,128709.948,4.0404,2.2144,,,8.1424,0.6061
0.15001,128769.948,4.0416,2.2169,0.0,0.0,8.1525,0.60628
0.15002,128829.948,4.0426,2.2194,,,8.1626,0.60647
0.15002,128889.948,4.0434,2.2219,0.4152,0.0,8.1727,0.60659
0.15001,128949.952,4.0444,2.2244,,2.4407,8.1828,0.6067
0.15002,129009.949,4.0454,2.2269,0.0,,8.1929,0.60689
0.15003,129069.95,4.0466,2.2294,,0.0,8.2031,0.60711
0.15003,129129.948,4.0476,2.2319,0.0,,8.2132,0.60726
0.15003,129189.948,4.0484,2.2344,,0.0,8.2233,0.60738
0.15003,129249.949,4.0494,2.2369,0.0,2.5069,8.2334,0.60753
0.15002,129309.95,4.0504,2.2394,,,8.2435,0.60764
0.15002,129369.948,4.0515,2.2419,0.0,0.0,8.2537,0.60781
0.15002,129429.948,4.0525,2.2444,,,8.2638,0.60796
0.15002,129489.949,4.0533,2.2469,0.39379,0.0,8.2739,0.60808
0.15003,129549.949,4.0542,2.2494,,2.5958,8.2841,0.60825
0.15002,129609.949,4.0552,2.2519,0.0,,8.2942,0.60836
0.15001,129669.949,4.0562,2.2544,,0.0,8.3043,0.60847
0.15002,129729.949,4.0572,2.2569,0.0,,8.3145,0.60866
0.15001,129789.949,4.058,2.2594,,0.0,8.3246,0.60874
0.15002,129849.949,4.0589,2.2619,0.0,2.6865,8.3348,0.60892
0.15001,129909.949,4.0598,2.2644,,,8.3449,0.60901
0.15002,129969.948,4.0608,2.2669,0.0,0.0,8.3551,0.6092
0.15002,130029.948,4.0617,2.2694,,,8.3652,0.60934
0.15002,130089.949,4.0626,2.2719,0.0,0.0,8.3754,0.60947
0.15001,130149.948,4.0632,2.2744,0.36499,,8.3855,0.60952
0.15001,130209.948,4.0641,2.2769,,2.8292,8.3957,0.60966
0.15002,130269.948,4.0652,2.2794,0.0,,8.4058,0.60986
0.15001,130329.948,4.066,2.2819,,0.0,8.416,0.60994
0.15001,130389.948,4.0667,2.2844,0.0,,8.4262,0.61005
0.15001,130449.95,4.0674,2.2869,,0.0,8.4363,0.61015
0.15002,130509.948,4.0682,2.2894,0.0,,8.4465,0.61031
0.15002,130569.949,4.0692,2.2919,,3.0377,8.4567,0.61046