File: Data/monotonic_segments/Cycle 745_discharge.csv
Current(A),Test_Time(s),Voltage(V),Discharge_Capacity(Ah),dV/dQ(V/Ah),dQ/dV(Ah/V),Discharge_Energy(Wh),Power(W)
-0.14999,13096.735,4.0668,0.34739,0.0,0.0,1.4217,-0.60998
-0.15,13216.736,4.0664,0.35239,0.0,0.0,1.442,-0.60996
-0.14999,13336.735,4.0656,0.35739,0.0,0.0,1.4623,-0.6098
-0.14999,13456.737,4.0651,0.36239,0.0,0.0,1.4826,-0.60972
-0.14999,13576.736,4.0641,0.36739,0.0,0.0,1.503,-0.60957
-0.14999,13696.735,4.0634,0.37238,0.0,0.0,1.5233,-0.60947
-0.14999,13816.736,4.0627,0.37738,0.0,,1.5436,-0.60936
-0.14999,13936.736,4.0616,0.38238,0.0,,1.5639,-0.6092
-0.14999,14056.734,4.0608,0.38738,0.0,,1.5842,-0.60908
-0.15,14176.737,4.0596,0.39238,0.0,,1.6045,-0.60894
-0.14999,14296.735,4.0587,0.39738,0.0,,1.6248,-0.60876
-0.14999,14416.735,4.0576,0.40238,,5.2428,1.6451,-0.6086
-0.15,14536.734,4.0563,0.40737,,0.0,1.6653,-0.60845
-0.15,14656.735,4.0553,0.41237,,0.0,1.6856,-0.6083
-0.14999,14776.735,4.0539,0.41737,,0.0,1.7059,-0.60804
-0.14999,14896.736,4.0528,0.42237,,4.1728,1.7261,-0.60788
-0.15,15016.736,4.0514,0.42737,,0.0,1.7464,-0.60771
-0.14998,15136.735,4.05,0.43237,,0.0,1.7666,-0.60742
-0.14999,15256.735,4.0488,0.43737,,0.0,1.7869,-0.60728
-0.14999,15376.736,4.0472,0.44236,,,1.8071,-0.60704
-0.14998,15496.737,4.0459,0.44736,,,1.8273,-0.6068
-0.14999,15616.734,4.0445,0.45236,,,1.8476,-0.60663
-0.14999,15736.736,4.0428,0.45736,,3.5966,1.8678,-0.60638
-0.15,15856.735,4.0415,0.46236,,0.0,1.888,-0.60623
-0.14999,15976.737,4.04,0.46736,,0.0,1.9082,-0.60596
-0.14998,16096.734,4.0383,0.47236,,0.0,1.9284,-0.60566
-0.15,16216.734,4.0369,0.47735,,,1.9486,-0.60554
-0.14999,16336.737,4.0351,0.48235,,,1.9687,-0.60522
-0.14998,16456.735,4.0336,0.48735,,,1.9889,-0.60496
-0.14999,16576.737,4.032,0.49235,,,2.0091,-0.60476
-0.14999,16696.735,4.0301,0.49735,,,2.0292,-0.60447
-0.14998,16816.737,4.0287,0.50235,,,2.0493,-0.60422
-0.15,16936.736,4.0268,0.50734,,,2.0695,-0.60402
-0.14998,17056.735,4.0253,0.51234,,,2.0896,-0.60371
-0.14998,17176.736,4.0234,0.51734,,,2.1097,-0.60343
-0.14999,17296.736,4.0215,0.52234,,,2.1298,-0.60318
-0.14999,17416.737,4.02,0.52734,,,2.1499,-0.60296
-0.14999,17536.735,4.0179,0.53234,0.35223,,2.17,-0.60264
-0.14999,17656.735,4.0163,0.53734,0.0,,2.1901,-0.6024
-0.15,17776.737,4.0143,0.54233,0.0,,2.2102,-0.60215
-0.15,17896.735,4.0124,0.54733,0.0,2.7272,2.2302,-0.60186
-0.14998,18016.735,4.0107,0.55233,0.0,0.0,2.2503,-0.60152
-0.14999,18136.736,4.0087,0.55733,0.0,0.0,2.2703,-0.60126
-0.14999,18256.735,4.0069,0.56233,,,2.2903,-0.60099
-0.14998,18376.736,4.005,0.56733,,,2.3104,-0.60067
-0.15,18496.735,4.0029,0.57233,,2.5376,2.3304,-0.60044
-0.14999,18616.735,4.0012,0.57732,,0.0,2.3504,-0.60014
-0.15,18736.735,3.999,0.58232,,0.0,2.3704,-0.59985
-0.14999,18856.737,3.9972,0.58732,,2.6169,2.3904,-0.59954
-0.15,18976.734,3.9952,0.59232,,0.0,2.4103,-0.59928
-0.14999,19096.736,3.9931,0.59732,,0.0,2.4303,-0.59893
-0.15001,19216.736,3.9914,0.60232,,,2.4503,-0.59875
-0.15,19336.735,3.9892,0.60732,,,2.4702,-0.59838
-0.14998,19456.735,3.9872,0.61231,0.38311,2.5262,2.4901,-0.598
-0.15,19576.736,3.9854,0.61731,0.0,0.0,2.5101,-0.59781
-0.14999,19696.737,3.9833,0.62231,0.0,0.0,2.53,-0.59746
-0.15,19816.735,3.9815,0.62731,0.0,,2.5499,-0.59723
-0.14998,19936.735,3.9793,0.63231,0.0,,2.5698,-0.59682
-0.14999,20056.735,3.9774,0.63731,0.39602,2.5944,2.5897,-0.59657
-0.15,20176.736,3.9755,0.6423,0.0,0.0,2.6095,-0.59633
-0.15,20296.736,3.9734,0.6473,0.0,0.0,2.6294,-0.59601
-0.14999,20416.734,3.9717,0.6523,0.0,,2.6493,-0.59572
-0.14998,20536.736,3.9696,0.6573,0.0,,2.6691,-0.59536
-0.14999,20656.737,3.9679,0.6623,0.38644,2.6138,2.689,-0.59515
-0.14999,20776.735,3.9658,0.6673,0.0,0.0,2.7088,-0.59483
-0.15,20896.737,3.9639,0.6723,0.0,0.0,2.7286,-0.59459
-0.14998,21016.735,3.9622,0.67729,0.0,2.6395,2.7484,-0.59425
-0.14999,21136.735,3.9602,0.68229,0.0,0.0,2.7682,-0.59399
-0.14999,21256.736,3.9585,0.68729,0.0,0.0,2.788,-0.59374
-0.15,21376.737,3.9565,0.69229,,,2.8078,-0.59348
-0.14999,21496.735,3.9549,0.69729,,,2.8276,-0.5932
-0.15,21616.737,3.953,0.70229,,,2.8473,-0.59295
-0.15,21736.735,3.9512,0.70729,,,2.8671,-0.59268
-0.14999,21856.735,3.9496,0.71228,,,2.8868,-0.5924
-0.15,21976.736,3.9477,0.71728,0.35418,,2.9066,-0.59216
-0.14999,22096.735,3.9462,0.72228,0.0,,2.9263,-0.59189
-0.14999,22216.735,3.9443,0.72728,0.0,,2.946,-0.59161
-0.15,22336.735,3.9427,0.73228,0.0,2.9823,2.9657,-0.59141
-0.14999,22456.736,3.9412,0.73728,0.0,0.0,2.9854,-0.59114
-0.14999,22576.736,3.9395,0.74228,0.0,,3.0051,-0.59089
-0.14999,22696.735,3.9378,0.74727,0.33089,,3.0248,-0.59063
-0.14999,22816.735,3.9365,0.75227,0.0,,3.0445,-0.59044
-0.14999,22936.735,3.9346,0.75727,0.0,,3.0642,-0.59015
-0.14999,23056.736,3.9333,0.76227,0.0,,3.0838,-0.58996
-0.14999,23176.736,3.9317,0.76727,0.0,,3.1035,-0.58972
-0.14999,23296.737,3.9301,0.77227,0.0,,3.1231,-0.58948
-0.14999,23416.736,3.9288,0.77726,0.0,,3.1428,-0.58928
-0.14998,23536.735,3.9272,0.78226,,3.3613,3.1624,-0.589
-0.14998,23656.736,3.9258,0.78726,,0.0,3.182,-0.58879
-0.14999,23776.736,3.9245,0.79226,,0.0,3.2017,-0.58864
-0.15,23896.735,3.9229,0.79726,,0.0,3.2213,-0.58844
-0.14998,24016.736,3.9217,0.80226,,,3.2409,-0.58818
-0.15,24136.737,3.9202,0.80726,,,3.2605,-0.58803
-0.14998,24256.735,3.9189,0.81225,,,3.2801,-0.58776
-0.14998,24376.736,3.9176,0.81725,,3.6807,3.2996,-0.58756
-0.14999,24496.735,3.9162,0.82225,,0.0,3.3192,-0.58739
-0.15,24616.737,3.9151,0.82725,0.0,0.0,3.3388,-0.58727
-0.14998,24736.735,3.9136,0.83225,0.0,0.0,3.3584,-0.58696
-0.14998,24856.736,3.9123,0.83725,0.0,3.8289,3.3779,-0.58677
-0.14999,24976.735,3.9112,0.84225,0.0,0.0,3.3975,-0.58664
-0.14999,25096.735,3.9098,0.84724,0.0,0.0,3.417,-0.58643
-0.14999,25216.735,3.9088,0.85224,0.0,0.0,3.4366,-0.58628
-0.14999,25336.736,3.9074,0.85724,0.24988,3.9749,3.4561,-0.58607
-0.14999,25456.734,3.9061,0.86224,0.0,0.0,3.4756,-0.58588
-0.14999,25576.736,3.905,0.86724,0.0,0.0,3.4952,-0.58571
-0.15,25696.736,3.9036,0.87224,0.0,0.0,3.5147,-0.58554
-0.14999,25816.734,3.9025,0.87723,0.0,3.9369,3.5342,-0.58534
-0.14999,25936.735,3.901,0.88223,0.0,0.0,3.5537,-0.58511
-0.14999,26056.735,3.8997,0.88723,0.0,0.0,3.5732,-0.58492
-0.15,26176.737,3.8985,0.89223,0.0,0.0,3.5927,-0.58478
-0.14999,26296.735,3.897,0.89723,,,3.6121,-0.58451
-0.14999,26416.735,3.8957,0.90223,,,3.6316,-0.58432
-0.15,26536.735,3.8945,0.90723,,,3.6511,-0.58418
-0.14998,26656.734,3.8929,0.91222,,0.0,3.6706,-0.58386
-0.14998,26776.737,3.8917,0.91722,,,3.69,-0.58368
-0.14999,26896.735,3.8902,0.92222,,,3.7095,-0.58349
-0.15,27016.737,3.8887,0.92722,,,3.7289,-0.58331
-0.15,27136.734,3.8873,0.93222,,3.4633,3.7483,-0.5831
-0.14999,27256.735,3.8857,0.93722,,0.0,3.7678,-0.58282
-0.14999,27376.735,3.8843,0.94222,,0.0,3.7872,-0.58261
-0.14999,27496.735,3.8825,0.94722,,3.2214,3.8066,-0.58234
-0.15,27616.735,3.8809,0.95222,0.0,0.0,3.826,-0.58214
-0.14999,27736.736,3.8794,0.95722,0.0,0.0,3.8454,-0.58187
-0.15,27856.734,3.8775,0.96222,0.32013,2.9868,3.8648,-0.58163
-0.15,27976.736,3.8759,0.96721,0.0,0.0,3.8842,-0.58139
-0.14999,28096.735,3.8741,0.97221,0.0,0.0,3.9036,-0.58108
-0.14999,28216.735,3.8721,0.97721,0.0,2.8153,3.9229,-0.58078
-0.14999,28336.734,3.8705,0.98221,0.0,0.0,3.9423,-0.58054
-0.15,28456.736,3.8686,0.98721,0.0,0.0,3.9616,-0.58029
-0.15,28576.737,3.8669,0.99221,,2.7793,3.9809,-0.58004
-0.15,28696.734,3.8651,0.99721,,0.0,4.0003,-0.57977
-0.15,28816.737,3.863,1.0022,,0.0,4.0196,-0.57945
-0.14999,28936.735,3.8614,1.0072,,,4.0389,-0.57917
-0.15,29056.735,3.8593,1.0122,,,4.0582,-0.5789
-0.14999,29176.735,3.8575,1.0172,0.37098,2.5688,4.0775,-0.57859
-0.14999,29296.735,3.8557,1.0222,0.0,0.0,4.0968,-0.57832
-0.14999,29416.734,3.8536,1.0272,0.0,0.0,4.116,-0.578
-0.15,29536.737,3.8519,1.0322,0.0,2.703,4.1353,-0.57779
-0.14999,29656.735,3.8498,1.0372,0.0,0.0,4.1545,-0.57743
-0.15,29776.735,3.848,1.0422,0.37948,0.0,4.1738,-0.5772
-0.14999,29896.735,3.8462,1.0472,0.0,,4.193,-0.57689
-0.15,30016.735,3.8442,1.0522,,,4.2122,-0.57663
-0.14999,30136.735,3.8424,1.0572,,2.6599,4.2315,-0.57632
-0.14999,30256.735,3.8404,1.0622,,0.0,4.2507,-0.57602
-0.14998,30376.736,3.8386,1.0672,,0.0,4.2698,-0.57571
-0.14999,30496.737,3.8369,1.0722,,2.7045,4.289,-0.5755
-0.14999,30616.735,3.8349,1.0772,,0.0,4.3082,-0.5752
-0.14999,30736.736,3.8332,1.0822,,0.0,4.3274,-0.57494
-0.15,30856.735,3.8313,1.0872,,,4.3465,-0.5747
-0.14999,30976.735,3.8295,1.0922,,,4.3657,-0.57439
-0.14999,31096.735,3.8278,1.0972,0.36273,,4.3848,-0.57413
-0.14999,31216.736,3.8259,1.1022,0.0,,4.404,-0.57385
-0.14999,31336.735,3.8243,1.1072,0.0,,4.4231,-0.57361
-0.14999,31456.736,3.8223,1.1122,0.0,2.7921,4.4422,-0.57331
-0.14999,31576.736,3.8207,1.1172,0.0,0.0,4.4613,-0.57307
-0.14999,31696.734,3.8189,1.1222,0.0,0.0,4.4804,-0.5728
-0.14999,31816.737,3.817,1.1272,,2.8079,4.4995,-0.57251
-0.14999,31936.735,3.8155,1.1322,,0.0,4.5186,-0.57229
-0.15,32056.736,3.8135,1.1372,,0.0,4.5376,-0.57203
-0.14999,32176.735,3.812,1.1422,,2.9023,4.5567,-0.57176
-0.14999,32296.736,3.8102,1.1472,0.0,0.0,4.5757,-0.57149
-0.14999,32416.735,3.8083,1.1522,0.0,0.0,4.5948,-0.57121
-0.14998,32536.736,3.8066,1.1572,,,4.6138,-0.57091
-0.15,32656.737,3.8051,1.1622,,,4.6328,-0.57077
-0.14998,32776.737,3.8032,1.1672,,,4.6519,-0.5704
-0.15,32896.737,3.8015,1.1722,,,4.6709,-0.57023
-0.15,33016.736,3.8,1.1772,,,4.6899,-0.57
-0.15,33136.735,3.7981,1.1822,,,4.7089,-0.56972
-0.15,33256.736,3.7966,1.1872,,,4.7278,-0.56949
-0.15,33376.736,3.7947,1.1922,,,4.7468,-0.56921
-0.14999,33496.736,3.793,1.1972,,,4.7658,-0.56891
-0.15,33616.735,3.7915,1.2022,,,4.7847,-0.56873
-0.15,33736.737,3.7897,1.2072,,,4.8037,-0.56846
-0.14999,33856.736,3.7882,1.2122,,,4.8226,-0.56819
-0.15,33976.736,3.7864,1.2172,,,4.8416,-0.56796
-0.14999,34096.736,3.7847,1.2222,,,4.8605,-0.56767
-0.15,34216.736,3.7832,1.2272,,,4.8794,-0.56748
-0.15,34336.736,3.7813,1.2322,,,4.8983,-0.5672
-0.14999,34456.735,3.7799,1.2372,,,4.9172,-0.56695
-0.15,34576.736,3.7781,1.2422,,,4.9361,-0.56672
-0.14999,34696.736,3.7764,1.2472,,,4.955,-0.56642
-0.14999,34816.736,3.7749,1.2522,,,4.9739,-0.5662
-0.14999,34936.737,3.773,1.2572,,,4.9927,-0.56591
-0.14999,35056.736,3.7716,1.2622,,,5.0116,-0.5657
-0.14999,35176.736,3.7698,1.2672,,,5.0305,-0.56543
-0.14999,35296.737,3.7681,1.2722,,,5.0493,-0.56518
-0.14999,35416.736,3.7666,1.2772,,,5.0681,-0.56495
-0.15,35536.735,3.7648,1.2822,,,5.087,-0.56472
-0.14999,35656.736,3.7632,1.2872,,,5.1058,-0.56444
-0.15,35776.736,3.7615,1.2922,,,5.1246,-0.56423
-0.14999,35896.736,3.7598,1.2972,,,5.1434,-0.56393
-0.14999,36016.736,3.7583,1.3022,,,5.1622,-0.56371
-0.14999,36136.736,3.7564,1.3072,,,5.181,-0.56342
-0.14999,36256.735,3.7549,1.3122,,,5.1997,-0.5632
-0.14999,36376.734,3.7531,1.3172,,,5.2185,-0.56293
-0.15,36496.737,3.7514,1.3222,,,5.2373,-0.56271
-0.15,36616.736,3.7499,1.3272,,,5.256,-0.56249
-0.14999,36736.735,3.748,1.3322,,,5.2747,-0.56216
-0.15,36856.735,3.7465,1.3372,,,5.2935,-0.56198
-0.14999,36976.736,3.7448,1.3422,,,5.3122,-0.56168
-0.15,37096.734,3.7429,1.3472,,,5.3309,-0.56144
-0.15,37216.734,3.7414,1.3522,,,5.3496,-0.56121
-0.15,37336.736,3.7395,1.3572,,,5.3683,-0.56093
-0.15,37456.735,3.738,1.3622,0.33911,,5.387,-0.5607
-0.15,37576.736,3.7361,1.3672,0.0,,5.4057,-0.56042
-0.14999,37696.736,3.7344,1.3722,0.0,,5.4244,-0.56012
-0.14999,37816.735,3.7329,1.3771,0.0,,5.443,-0.5599
-0.14999,37936.736,3.731,1.3821,0.0,,5.4617,-0.55961
-0.15,38056.736,3.7295,1.3871,0.0,,5.4804,-0.55943
-0.15,38176.736,3.7276,1.3921,0.34181,,5.499,-0.55914
-0.14999,38296.734,3.726,1.3971,0.0,,5.5176,-0.55886
-0.15,38416.735,3.7243,1.4021,0.0,,5.5362,-0.55865
-0.14999,38536.735,3.7225,1.4071,0.0,,5.5549,-0.55834
-0.14999,38656.735,3.721,1.4121,0.0,,5.5735,-0.55811
-0.14999,38776.735,3.7191,1.4171,0.0,,5.5921,-0.55783
-0.15,38896.734,3.7176,1.4221,0.33885,,5.6106,-0.55764
-0.15,39016.736,3.7157,1.4271,0.0,,5.6292,-0.55736
-0.14999,39136.734,3.7141,1.4321,0.0,,5.6478,-0.55708
-0.14999,39256.736,3.7126,1.4371,0.0,,5.6664,-0.55685
-0.15001,39376.735,3.7107,1.4421,0.0,,5.6849,-0.55664
-0.14998,39496.736,3.7092,1.4471,0.0,,5.7035,-0.55631
-0.15,39616.736,3.7074,1.4521,0.33629,,5.722,-0.55611
-0.15,39736.735,3.7059,1.4571,0.0,,5.7405,-0.55589
-0.15,39856.735,3.7043,1.4621,0.0,,5.759,-0.55565
-0.15001,39976.735,3.7026,1.4671,0.0,,5.7776,-0.55543
-0.15,40096.736,3.7011,1.4721,0.0,,5.7961,-0.55517
-0.14999,40216.736,3.6993,1.4771,0.0,,5.8146,-0.55486
-0.15,40336.736,3.6978,1.4821,0.32193,,5.833,-0.55467
-0.15,40456.737,3.6963,1.4871,0.0,,5.8515,-0.55445
-0.14999,40576.735,3.6945,1.4921,0.0,,5.87,-0.55414
-0.14999,40696.736,3.6932,1.4971,0.0,,5.8885,-0.55394
-0.14999,40816.736,3.6915,1.5021,0.0,,5.9069,-0.55369
-0.15,40936.737,3.6901,1.5071,0.0,,5.9254,-0.55352
-0.15,41056.736,3.6884,1.5121,0.0,,5.9438,-0.55326
-0.14999,41176.735,3.6868,1.5171,,3.2764,5.9622,-0.55298
-0.14999,41296.736,3.6855,1.5221,,0.0,5.9807,-0.55279
-0.14999,41416.736,3.6838,1.5271,,0.0,5.9991,-0.55253
-0.14999,41536.735,3.6826,1.5321,,0.0,6.0175,-0.55235
-0.15,41656.736,3.6809,1.5371,,,6.0359,-0.55214
-0.15,41776.737,3.6794,1.5421,,,6.0543,-0.55191
-0.15,41896.735,3.6782,1.5471,,,6.0727,-0.55173
-0.15,42016.737,3.6766,1.5521,,,6.0911,-0.55149
-0.15,42136.738,3.6753,1.5571,,,6.1094,-0.5513
-0.15,42256.734,3.6737,1.5621,,,6.1278,-0.55106
-0.14999,42376.735,3.6724,1.5671,,,6.1462,-0.55082
-0.14999,42496.734,3.6711,1.5721,,,6.1645,-0.55063
-0.14998,42616.735,3.6696,1.5771,,,6.1829,-0.55037
-0.14999,42736.734,3.6684,1.5821,,,6.2012,-0.55022
-0.14999,42856.734,3.6669,1.5871,,3.661,6.2195,-0.55
-0.14999,42976.736,3.6656,1.5921,,0.0,6.2379,-0.5498
-0.14999,43096.737,3.6644,1.5971,,0.0,6.2562,-0.54962
-0.15,43216.737,3.6629,1.6021,,0.0,6.2745,-0.54944
-0.15,43336.735,3.6618,1.6071,,,6.2928,-0.54927
-0.14999,43456.736,3.6603,1.6121,,,6.3111,-0.54901
-0.14999,43576.735,3.659,1.6171,,,6.3294,-0.54881
-0.14999,43696.736,3.6579,1.6221,0.26193,,6.3477,-0.54865
-0.14999,43816.735,3.6565,1.6271,0.0,,6.366,-0.54844
-0.14999,43936.737,3.6554,1.6321,0.0,,6.3842,-0.54827
-0.14998,44056.735,3.654,1.6371,0.0,,6.4025,-0.54803
-0.14999,44176.734,3.6527,1.6421,0.0,,6.4208,-0.54787
-0.14998,44296.734,3.6517,1.6471,0.0,,6.439,-0.54768
-0.14998,44416.736,3.6503,1.6521,0.0,,6.4573,-0.54747
-0.15,44536.736,3.6492,1.6571,0.0,,6.4755,-0.54738
-0.14999,44656.735,3.6478,1.6621,0.0,,6.4938,-0.54713
-0.14999,44776.736,3.6467,1.6671,,,6.512,-0.54697
-0.14999,44896.737,3.6456,1.6721,,,6.5302,-0.5468
-0.15001,45016.736,3.6443,1.6771,,,6.5484,-0.54668
-0.14999,45136.736,3.6433,1.6821,,,6.5666,-0.54646
-0.14998,45256.735,3.6419,1.6871,,4.2226,6.5849,-0.54621
-0.14999,45376.735,3.6407,1.6921,,0.0,6.6031,-0.54607
-0.14999,45496.735,3.6397,1.6971,,0.0,6.6213,-0.54592
-0.15,45616.736,3.6384,1.7021,,0.0,6.6395,-0.54576
-0.15,45736.735,3.6374,1.7071,,4.2104,6.6576,-0.54561
-0.14999,45856.736,3.6361,1.7121,,0.0,6.6758,-0.54538
-0.14999,45976.736,3.635,1.7171,0.0,0.0,6.694,-0.54521
-0.14998,46096.736,3.634,1.7221,0.0,0.0,6.7122,-0.54503
-0.15,46216.735,3.6327,1.7271,0.0,0.0,6.7303,-0.54491
-0.14999,46336.735,3.6315,1.7321,0.0,,6.7485,-0.54469
-0.14998,46456.735,3.6305,1.7371,0.0,,6.7666,-0.5445
-0.14999,46576.735,3.6292,1.7421,0.0,,6.7848,-0.54434
-0.15,46696.735,3.6282,1.7471,0.0,,6.8029,-0.54423
-0.14999,46816.735,3.6268,1.7521,,4.3208,6.8211,-0.54398
-0.14999,46936.736,3.6256,1.7571,,0.0,6.8392,-0.5438
-0.14999,47056.737,3.6247,1.7621,,0.0,6.8573,-0.54367
-0.14999,47176.735,3.6234,1.7671,,0.0,6.8754,-0.54347
-0.14999,47296.736,3.6221,1.7721,,4.273,6.8935,-0.54328
-0.14999,47416.735,3.6211,1.7771,,0.0,6.9117,-0.54313
-0.15,47536.737,3.6198,1.7821,,0.0,6.9298,-0.54297
-0.14999,47656.735,3.6188,1.7871,,0.0,6.9478,-0.54278
-0.14998,47776.736,3.6175,1.7921,0.23487,0.0,6.9659,-0.54255
-0.15001,47896.737,3.6163,1.7971,0.0,,6.984,-0.54248
-0.15,48016.737,3.6152,1.8021,0.0,,7.0021,-0.54228
-0.15,48136.738,3.6139,1.8071,0.0,,7.0202,-0.54209
-0.15,48256.736,3.6129,1.8121,0.0,,7.0382,-0.54194
-0.15,48376.734,3.6115,1.8171,0.0,,7.0563,-0.54173
-0.15,48496.735,3.6105,1.8221,0.0,,7.0743,-0.54158
-0.15,48616.735,3.6091,1.8271,0.0,,7.0924,-0.54137
-0.14999,48736.735,3.6079,1.8321,0.0,,7.1104,-0.54115
-0.15,48856.735,3.6069,1.8371,,4.1763,7.1285,-0.54104
-0.14999,48976.736,3.6055,1.842,,0.0,7.1465,-0.54079
-0.14999,49096.736,3.6045,1.847,,0.0,7.1645,-0.54064
-0.15,49216.737,3.6031,1.852,,0.0,7.1825,-0.54047
-0.14999,49336.737,3.602,1.857,,4.1124,7.2005,-0.54026
-0.15,49456.735,3.6008,1.862,,0.0,7.2185,-0.54012
-0.15001,49576.736,3.5994,1.867,,0.0,7.2365,-0.53995
-0.15,49696.736,3.5983,1.872,,0.0,7.2545,-0.53975
-0.15,49816.735,3.597,1.877,,4.0691,7.2725,-0.53955
-0.15,49936.734,3.5958,1.882,,0.0,7.2905,-0.53937
-0.14999,50056.736,3.5945,1.887,,0.0,7.3085,-0.53914
-0.14999,50176.736,3.5932,1.892,,0.0,7.3264,-0.53894
-0.15,50296.734,3.5921,1.897,,4.0202,7.3444,-0.53882
-0.15,50416.737,3.5907,1.902,,0.0,7.3624,-0.53861
-0.15,50536.736,3.5896,1.907,,0.0,7.3803,-0.53844
-0.15,50656.737,3.5882,1.912,,0.0,7.3983,-0.53823
-0.15,50776.736,3.5869,1.917,,3.923,7.4162,-0.53804
-0.15,50896.736,3.5857,1.922,,0.0,7.4341,-0.53786
-0.15,51016.735,3.5842,1.927,,0.0,7.452,-0.53763
-0.15,51136.735,3.5831,1.932,,0.0,7.47,-0.53747
-0.14998,51256.736,3.5816,1.937,,,7.4879,-0.53717
-0.14999,51376.736,3.5803,1.942,,,7.5058,-0.53701
-0.14999,51496.736,3.5791,1.947,,,7.5237,-0.53683
-0.14999,51616.736,3.5776,1.952,0.26499,,7.5416,-0.5366
-0.15,51736.736,3.5763,1.957,0.0,,7.5594,-0.53645
-0.14999,51856.736,3.5749,1.962,0.0,,7.5773,-0.5362
-0.14999,51976.734,3.5735,1.967,0.0,,7.5952,-0.53599
-0.14999,52096.736,3.5723,1.972,0.0,3.6499,7.613,-0.53581
-0.15001,52216.736,3.5707,1.977,0.0,0.0,7.6309,-0.53564
-0.14999,52336.735,3.5695,1.982,0.0,0.0,7.6487,-0.53539
-0.14999,52456.735,3.5679,1.987,0.0,0.0,7.6666,-0.53515
-0.14999,52576.735,3.5666,1.992,,,7.6844,-0.53495
-0.15001,52696.736,3.5652,1.997,,,7.7023,-0.53482
-0.14999,52816.736,3.5636,2.002,,,7.7201,-0.5345
-0.14999,52936.735,3.5623,2.007,,3.4863,7.7379,-0.53431
-0.14999,53056.736,3.5607,2.012,,0.0,7.7557,-0.53407
-0.14998,53176.735,3.5593,2.017,,0.0,7.7735,-0.53382
-0.14999,53296.735,3.5578,2.022,0.28977,0.0,7.7913,-0.53363
-0.14999,53416.734,3.5562,2.027,0.0,,7.8091,-0.53339
-0.14999,53536.737,3.5549,2.032,0.0,,7.8268,-0.5332
-0.15,53656.736,3.5532,2.037,0.0,,7.8446,-0.53298
-0.15,53776.735,3.5518,2.042,,3.3333,7.8624,-0.53277
-0.15,53896.737,3.5504,2.047,,0.0,7.8801,-0.53256
-0.15,54016.734,3.5487,2.052,,0.0,7.8979,-0.53231
-0.15,54136.736,3.5473,2.057,0.30197,3.2541,7.9156,-0.5321
-0.14999,54256.736,3.5456,2.062,0.0,0.0,7.9333,-0.5318
-0.14999,54376.737,3.5441,2.067,0.0,0.0,7.9511,-0.53158
-0.15,54496.735,3.5427,2.072,0.0,0.0,7.9688,-0.53141
-0.14999,54616.738,3.541,2.077,0.0,,7.9865,-0.53111
-0.14999,54736.735,3.5395,2.082,0.0,,8.0042,-0.53089
-0.14999,54856.735,3.538,2.087,0.0,,8.0219,-0.53066
-0.14999,54976.737,3.5363,2.092,,,8.0396,-0.53041
-0.15,55096.735,3.5349,2.097,,,8.0572,-0.53024
-0.14999,55216.734,3.5332,2.102,,,8.0749,-0.52994
-0.15,55336.735,3.5317,2.107,,3.1799,8.0926,-0.52976
-0.14998,55456.736,3.5301,2.112,,0.0,8.1102,-0.52944
-0.15,55576.736,3.5283,2.117,,0.0,8.1279,-0.52925
-0.15,55696.735,3.5269,2.122,,3.1373,8.1455,-0.52904
-0.14999,55816.736,3.5253,2.127,,0.0,8.1631,-0.52876
-0.14999,55936.735,3.5236,2.132,,0.0,8.1807,-0.5285
-0.14999,56056.735,3.5221,2.137,,3.0891,8.1983,-0.52828
-0.14999,56176.735,3.5203,2.142,,0.0,8.216,-0.52801
-0.14999,56296.736,3.5188,2.147,,0.0,8.2335,-0.52778
-0.15,56416.735,3.517,2.152,0.32523,3.0441,8.2511,-0.52755
-0.14999,56536.735,3.5153,2.157,0.0,0.0,8.2687,-0.52726
-0.15,56656.737,3.5138,2.162,0.0,0.0,8.2863,-0.52707
-0.14999,56776.736,3.5119,2.167,0.0,2.9848,8.3039,-0.52675
-0.14999,56896.738,3.5104,2.172,0.0,0.0,8.3214,-0.52652
-0.15001,57016.737,3.5086,2.177,0.0,0.0,8.3389,-0.52633
-0.14999,57136.736,3.507,2.182,,2.8794,8.3565,-0.52601
-0.14999,57256.735,3.5053,2.187,,0.0,8.374,-0.52576
-0.15001,57376.736,3.5033,2.192,,0.0,8.3915,-0.52553
-0.14999,57496.735,3.5017,2.197,,2.8975,8.409,-0.52522
-0.14998,57616.737,3.4998,2.202,,0.0,8.4265,-0.5249
-0.14999,57736.734,3.4981,2.207,,0.0,8.444,-0.52468
-0.15001,57856.736,3.4964,2.212,,,8.4615,-0.52449
-0.15,57976.735,3.4943,2.217,,,8.479,-0.52415
-0.14999,58096.736,3.4927,2.222,,,8.4965,-0.52387
-0.15,58216.735,3.4906,2.227,,,8.5139,-0.52359
-0.14999,58336.735,3.4889,2.232,,,8.5314,-0.5233
-0.14998,58456.735,3.4871,2.237,0.36938,2.6535,8.5488,-0.523
-0.14999,58576.735,3.4851,2.242,0.0,0.0,8.5662,-0.52273
-0.14999,58696.736,3.4833,2.247,0.0,0.0,8.5836,-0.52246
-0.14999,58816.736,3.4812,2.252,0.0,2.6393,8.6011,-0.52215
-0.14999,58936.735,3.4793,2.257,0.0,0.0,8.6185,-0.52186
-0.15,59056.734,3.4774,2.262,0.38296,0.0,8.6358,-0.52161
-0.15,59176.735,3.4754,2.267,0.0,,8.6532,-0.52131
-0.14999,59296.736,3.4736,2.272,0.0,,8.6706,-0.52101
-0.14999,59416.737,3.4714,2.277,0.0,2.5444,8.688,-0.52068
-0.15,59536.736,3.4694,2.282,0.0,0.0,8.7053,-0.52041
-0.15,59656.735,3.4676,2.287,0.39794,0.0,8.7226,-0.52014
-0.14999,59776.736,3.4653,2.292,0.0,,8.74,-0.51976
-0.15,59896.735,3.4634,2.297,0.0,,8.7573,-0.51951
-0.14999,60016.735,3.4612,2.302,0.0,2.4757,8.7746,-0.51915
-0.14999,60136.737,3.459,2.307,0.0,0.0,8.7919,-0.51882
-0.14999,60256.734,3.4572,2.312,0.4104,0.0,8.8092,-0.51855
-0.14999,60376.735,3.455,2.317,0.0,,8.8265,-0.51822
-0.14999,60496.735,3.4531,2.322,0.0,,8.8437,-0.51793
-0.14999,60616.736,3.451,2.327,0.0,,8.861,-0.51762
-0.15,60736.736,3.4489,2.332,0.0,,8.8782,-0.51734
-0.14999,60856.735,3.4471,2.337,0.40823,2.5064,8.8955,-0.51703
-0.14998,60976.735,3.445,2.342,0.0,0.0,8.9127,-0.51668
-0.14998,61096.735,3.443,2.347,0.0,0.0,8.9299,-0.51638
-0.15,61216.736,3.4413,2.352,0.0,2.5891,8.9471,-0.5162
-0.14999,61336.736,3.4393,2.357,0.0,0.0,8.9643,-0.51586
-0.15,61456.736,3.4377,2.362,0.37578,0.0,8.9815,-0.51566
-0.15,61576.735,3.4358,2.367,0.0,,8.9987,-0.51537
-0.15,61696.736,3.4341,2.372,0.0,,9.0159,-0.51512
-0.14999,61816.735,3.4326,2.377,0.0,,9.033,-0.51486
-0.14999,61936.734,3.4309,2.382,0.0,,9.0502,-0.5146
-0.15,62056.735,3.4294,2.387,0.0,,9.0674,-0.51441
-0.14999,62176.735,3.4278,2.392,0.33017,,9.0845,-0.51414
-0.15,62296.735,3.4262,2.397,0.0,3.212,9.1016,-0.51393
-0.15,62416.736,3.4249,2.402,0.0,0.0,9.1188,-0.51374
-0.14999,62536.734,3.4232,2.407,0.0,0.0,9.1359,-0.51345
-0.15,62656.736,3.4218,2.412,,3.3347,9.153,-0.51327
-0.15,62776.735,3.4205,2.417,,0.0,9.1701,-0.51308
-0.14999,62896.735,3.4189,2.422,,0.0,9.1872,-0.5128
-0.14999,63016.734,3.4176,2.427,0.2927,0.0,9.2043,-0.51261
-0.14998,63136.737,3.4161,2.432,0.0,,9.2214,-0.51235
-0.15,63256.736,3.4145,2.437,0.0,,9.2384,-0.51218
-0.15,63376.736,3.4133,2.442,0.0,,9.2555,-0.512
-0.15,63496.736,3.4117,2.447,0.0,3.4718,9.2726,-0.51176
-0.14999,63616.735,3.4104,2.452,0.0,0.0,9.2896,-0.51153
-0.14999,63736.734,3.4087,2.457,0.0,0.0,9.3067,-0.51127
-0.14999,63856.736,3.4072,2.462,0.29364,0.0,9.3237,-0.51105
-0.14998,63976.737,3.4059,2.467,0.0,,9.3407,-0.51082
-0.14998,64096.735,3.4042,2.472,0.0,,9.3577,-0.51056
-0.14999,64216.736,3.4027,2.477,0.0,,9.3748,-0.51037
-0.15,64336.735,3.4012,2.482,0.0,,9.3918,-0.51018
-0.15001,64456.735,3.3994,2.487,0.0,,9.4088,-0.50994
-0.15,64576.734,3.3979,2.492,0.0,,9.4258,-0.50969
-0.15,64696.737,3.3961,2.497,,,9.4427,-0.50942
-0.14999,64816.735,3.3945,2.502,,,9.4597,-0.50914
-0.14999,64936.735,3.3926,2.507,,,9.4767,-0.50886
-0.14999,65056.737,3.3908,2.512,,,9.4936,-0.50859
-0.15,65176.735,3.389,2.517,,,9.5106,-0.50835
-0.14999,65296.737,3.3869,2.522,0.36079,2.612,9.5275,-0.508
-0.15,65416.736,3.385,2.527,0.0,0.0,9.5445,-0.50775
-0.15,65536.736,3.3827,2.532,0.0,0.0,9.5614,-0.50741
-0.14999,65656.736,3.3803,2.537,0.0,,9.5783,-0.50701
-0.14999,65776.737,3.3781,2.542,0.0,,9.5952,-0.50668
-0.14999,65896.735,3.3755,2.547,,,9.6121,-0.50629
-0.15,66016.735,3.3731,2.552,,,9.6289,-0.50597
-0.14999,66136.735,3.3701,2.557,,,9.6458,-0.50548
-0.14999,66256.736,3.3675,2.562,0.53257,,9.6626,-0.50509
-0.14999,66376.737,3.3644,2.567,0.0,,9.6795,-0.50463
-0.14998,66496.736,3.3611,2.572,0.0,1.629,9.6963,-0.5041
-0.14999,66616.734,3.3579,2.577,0.0,0.0,9.7131,-0.50365
-0.15,66736.735,3.3542,2.582,,,9.7298,-0.50313
-0.15,66856.737,3.3504,2.587,,1.359,9.7466,-0.50256
-0.15,66976.737,3.3464,2.592,0.7535,1.2577,9.7633,-0.50196
-0.14999,67096.735,3.342,2.597,0.0,0.0,9.7801,-0.50127
-0.15,67216.735,3.3376,2.602,0.87287,,9.7968,-0.50064
-0.14999,67336.737,3.3326,2.607,0.0,,9.8134,-0.49986
-0.15001,67456.736,3.3276,2.612,0.98768,,9.8301,-0.49917
-0.14999,67576.736,3.3223,2.617,0.0,,9.8467,-0.49831
-0.15,67696.735,3.3164,2.622,1.12,0.86676,9.8633,-0.49746
-0.14999,67816.737,3.3105,2.627,0.0,0.8292,9.8799,-0.49654
-0.15,67936.736,3.3039,2.632,,0.79745,9.8964,-0.49559
-0.14999,68056.736,3.2971,2.637,1.3297,,9.9129,-0.49453
-0.14999,68176.735,3.2901,2.642,0.0,0.69992,9.9294,-0.49348
-0.15,68296.735,3.2824,2.647,,,9.9458,-0.49236
-0.14999,68416.736,3.2745,2.652,1.5498,0.63236,9.9622,-0.49114
-0.15,68536.736,3.266,2.657,1.651,0.58645,9.9785,-0.4899
-0.14999,68656.735,3.2573,2.662,1.7505,,9.9948,-0.48856
-0.14999,68776.737,3.2483,2.667,0.0,0.5534,10.011,-0.48721
-0.14999,68896.736,3.2386,2.672,,0.5256,10.027,-0.48576
-0.14999,69016.736,3.2288,2.677,,0.5001,10.043,-0.48429
-0.14999,69136.734,3.2182,2.682,,0.47916,10.06,-0.4827
-0.14999,69256.736,3.2073,2.687,2.1997,0.45968,10.076,-0.48106
-0.15,69376.735,3.1958,2.6919,2.2971,0.43015,10.092,-0.47937
-0.14999,69496.736,3.1835,2.6969,2.4073,0.40747,10.108,-0.47749
-0.14999,69616.736,3.1708,2.7019,,0.38543,10.123,-0.47559
-0.14998,69736.735,3.1573,2.7069,2.7135,0.376,10.139,-0.47353
-0.14999,69856.735,3.1432,2.7119,2.8028,0.35411,10.155,-0.47145
-0.14999,69976.736,3.1284,2.7169,,0.33259,10.171,-0.46923
-0.14999,70096.735,3.1125,2.7219,3.1168,0.31269,10.186,-0.46684
-0.14999,70216.737,3.0961,2.7269,3.3642,0.29334,10.202,-0.46438
-0.15,70336.736,3.0782,2.7319,,0.27701,10.217,-0.46173
-0.15,70456.734,3.0595,2.7369,3.7078,0.263,10.233,-0.45893
-0.14999,70576.735,3.0396,2.7419,3.931,0.24428,10.248,-0.45591
-0.14999,70696.734,3.018,2.7469,4.2342,0.22842,10.263,-0.45267
-0.14999,70816.736,2.995,2.7519,4.6828,0.21277,10.278,-0.44922
-0.14999,70936.735,2.9699,2.7569,5.0377,0.19459,10.293,-0.44546
-0.15,71056.734,2.9424,2.7619,5.5477,0.17673,10.308,-0.44136
-0.15,71176.736,2.9121,2.7669,6.1856,0.15978,10.322,-0.43682
-0.15,71296.737,2.8772,2.7719,7.033,0.13577,10.337,-0.43158
-0.14999,71416.735,2.8346,2.7769,9.3298,0.1058,10.351,-0.42516
-0.14999,71536.734,2.777,2.7819,13.348,0.076542,10.365,-0.41652
-0.14999,71656.735,2.7014,2.7869,15.908,0.063012,10.379,-0.40518
-0.14999,71776.735,2.6193,2.7919,16.634,0.05927,10.392,-0.39287
-0.15,71896.737,2.5357,2.7969,16.567,0.060969,10.405,-0.38036
-0.15,71949.862,2.5,2.7991,16.171,0.061643,10.411,-0.375